index,stimOn_times,feedback_times,goCue_times,probabilityLeft,contrastLeft,contrastRight,feedbackType,choice,firstMovement_times,signed_contrast,laser_stimulation,laser_probability,probe_trial,correct,right_choice,stim_side,reaction_times,session,subject,go_cued,sticky,win_stay_cued,lose_shift_cued,win_stay_spatial,lose_shift_spatial,rel_trial
0,25.743325410025744,34.420690920034424,34.01969769003402,0.2,,1.0,1.0,-1.0,34.20519124000079,1.0,1.0,1.0,0,1.0,1.0,1,0.1854935499667647,0,ZFM-02600,0.0,0.023,0.023,0.023,0.023,0.023,0.0
1,41.24630829004125,41.568309420041565,41.22467712004123,0.2,0.0,,-1.0,-1.0,41.37719124000079,-0.0,1.0,0.75,0,0.0,1.0,-1,0.15251411995956232,0,ZFM-02600,0.526,0.999,0.0,0.023,0.999,0.023,1.0
2,45.77942160004578,46.19081379004619,45.77192235004577,0.2,,0.0625,1.0,-1.0,45.9191912400008,0.0625,1.0,1.0,0,1.0,1.0,1,0.14726888995502918,0,ZFM-02600,0.332,0.999,0.0,0.999,0.999,0.0,2.0
3,51.36249657005136,51.787054110051784,51.34956453005135,0.2,,0.0625,1.0,-1.0,51.5701912400008,0.0625,1.0,1.0,0,1.0,1.0,1,0.22062670994944966,0,ZFM-02600,0.23600000000000002,0.999,0.526,0.999,0.999,0.0,3.0
4,56.12895321005613,56.47118565005647,56.11885422005612,0.2,1.0,,-1.0,-1.0,56.25619124000081,-1.0,1.0,1.0,0,0.0,1.0,-1,0.13733701994468817,0,ZFM-02600,0.422,0.999,0.332,0.999,0.999,0.0,4.0
5,60.51184821006051,60.84578148006084,60.512814780060516,0.2,0.0,,-1.0,-1.0,60.486191240000814,-0.0,1.0,0.75,0,0.0,1.0,-1,-0.026623540059702577,0,ZFM-02600,0.546,0.999,0.332,0.47400000000000003,0.999,0.0,5.0
6,66.994966500067,67.32779988006733,66.99040029006699,0.2,,0.125,1.0,-1.0,67.06119124000081,0.125,1.0,1.0,0,1.0,1.0,1,0.07079094993382284,0,ZFM-02600,0.441,0.999,0.332,0.668,0.999,0.0,6.0
7,70.17851478007017,70.5935399400706,70.17171546007017,0.2,,0.0625,1.0,-1.0,70.39019124000082,0.0625,1.0,1.0,0,1.0,1.0,1,0.2184757799306425,0,ZFM-02600,0.364,0.999,0.526,0.668,0.999,0.0,7.0
8,78.010964790078,78.33629892007833,78.00896499007801,0.2,0.0,,-1.0,-1.0,78.13219124000082,-0.0,1.0,0.75,0,0.0,1.0,-1,0.1232262499228085,0,ZFM-02600,0.467,0.999,0.398,0.668,0.999,0.0,8.0
9,84.26033979008426,84.71056143008471,84.26127303008427,0.2,,0.0,1.0,-1.0,84.46319124000082,0.0,1.0,0.75,0,1.0,1.0,1,0.20191820991655618,0,ZFM-02600,0.396,0.999,0.398,0.764,0.999,0.0,9.0
10,87.42708975008743,87.69029676008769,87.41055807008742,0.2,,0.25,1.0,-1.0,87.51119124000083,0.25,1.0,1.0,0,1.0,1.0,1,0.10063316991340798,0,ZFM-02600,0.338,0.999,0.526,0.764,0.999,0.0,10.0
11,95.20991139009521,95.5933730400956,95.19817923009519,0.2,,0.125,1.0,-1.0,95.39219124000084,0.125,1.0,1.0,0,1.0,1.0,1,0.1940120099056486,0,ZFM-02600,0.291,0.999,0.617,0.764,0.999,0.0,11.0
12,98.2931363700983,98.75202381009875,98.2908032700983,0.2,,1.0,1.0,-1.0,98.57419124000084,1.0,1.0,1.0,0,1.0,1.0,1,0.2833879699025488,0,ZFM-02600,0.252,0.999,0.684,0.764,0.999,0.0,12.0
13,101.40982467010141,102.14495115010214,101.40245874010141,0.2,,0.0,1.0,-1.0,101.90319124000084,0.0,1.0,0.75,0,1.0,1.0,1,0.5007324998994278,0,ZFM-02600,0.219,0.999,0.736,0.764,0.999,0.0,13.0
14,105.02612967010502,105.58227405010558,105.02376324010503,0.2,,0.0,1.0,-1.0,105.28419124000084,0.0,1.0,0.75,0,1.0,1.0,1,0.26042799989581056,0,ZFM-02600,0.192,0.999,0.776,0.764,0.999,0.0,14.0
15,109.24260798010924,109.57020855010957,109.24370787010925,0.2,,0.25,1.0,-1.0,109.37919124000085,0.25,1.0,1.0,0,1.0,1.0,1,0.13548336989160248,0,ZFM-02600,0.168,0.999,0.809,0.764,0.999,0.0,15.0
16,112.34239797011234,112.82264994011283,112.33036584011234,0.2,,0.25,1.0,-1.0,112.40519124000085,0.25,1.0,1.0,0,1.0,1.0,1,0.07482539988851045,0,ZFM-02600,0.148,0.999,0.836,0.764,0.999,0.0,16.0
17,115.4921163001155,115.91347416011591,115.47898428011548,0.2,,0.125,1.0,-1.0,115.64519124000086,0.125,1.0,1.0,0,1.0,1.0,1,0.16620695988537193,0,ZFM-02600,0.131,0.999,0.858,0.764,0.999,0.0,17.0
18,120.19191294012019,120.68463033012068,120.16994847012018,0.2,,0.0,1.0,-1.0,120.37719124000085,0.0,1.0,0.75,1,1.0,1.0,1,0.20724276988067913,0,ZFM-02600,0.115,0.999,0.876,0.764,0.999,0.0,18.0
19,123.44202123012344,123.98053404012398,123.43492194012343,0.2,,0.0,1.0,-1.0,123.64119124000086,0.0,1.0,0.75,1,1.0,1.0,1,0.2062692998774338,0,ZFM-02600,0.10200000000000001,0.999,0.892,0.764,0.999,0.0,19.0
20,126.80778462012681,127.10978775012711,126.7998854101268,0.2,,0.0,1.0,-1.0,126.83919124000086,0.0,1.0,0.75,0,1.0,1.0,1,0.03930582987405273,0,ZFM-02600,0.091,0.999,0.905,0.764,0.999,0.0,20.0
21,132.17461455013216,132.67423125013266,132.16084926013215,0.2,1.0,,1.0,1.0,132.46019124000088,-1.0,1.0,1.0,0,1.0,0.0,-1,0.29934197986872846,0,ZFM-02600,0.081,0.888,0.916,0.764,0.88,0.0,21.0
22,135.59097288013558,136.1120541001361,135.5848401601356,0.2,,0.25,1.0,-1.0,135.91119124000087,0.25,1.0,1.0,0,1.0,1.0,1,0.326351079865276,0,ZFM-02600,0.07200000000000001,0.789,0.926,0.764,0.776,0.0,22.0
23,140.6905628701407,141.7190933401417,140.68476345014068,0.2,0.0625,,-1.0,-1.0,141.27919124000087,-0.0625,1.0,1.0,0,0.0,1.0,-1,0.5944277898601911,0,ZFM-02600,0.17300000000000001,0.812,0.8190000000000001,0.764,0.802,0.0,23.0
24,149.1070211401491,149.55500967014956,149.10805437014912,0.2,,0.25,1.0,-1.0,148.9791912400009,0.25,1.0,1.0,0,1.0,1.0,1,-0.12886313014823259,0,ZFM-02600,0.154,0.833,0.8190000000000001,0.8220000000000001,0.802,0.0,24.0
25,154.25650614015427,155.09905521015511,154.23734139015423,0.2,,0.0625,1.0,-1.0,154.73919124000088,0.0625,1.0,1.0,0,1.0,1.0,1,0.5018498498466499,0,ZFM-02600,0.138,0.851,0.84,0.8220000000000001,0.8250000000000001,0.0,25.0
26,157.87281114015786,158.6109706501586,157.87164459015787,0.2,,0.0,1.0,-1.0,158.4231912400009,0.0,1.0,0.75,0,1.0,1.0,1,0.5515466498430328,0,ZFM-02600,0.123,0.867,0.858,0.8220000000000001,0.844,0.0,26.0
27,161.4892494601615,161.92530585016192,161.4846165901615,0.2,,1.0,1.0,-1.0,161.65619124000088,1.0,1.0,1.0,0,1.0,1.0,1,0.17157464983938553,0,ZFM-02600,0.11,0.881,0.874,0.8220000000000001,0.862,0.0,27.0
28,164.7060944101647,165.25593942016525,164.7032280301647,0.2,,0.0625,1.0,-1.0,165.05619124000089,0.0625,1.0,1.0,0,1.0,1.0,1,0.3529632098361901,0,ZFM-02600,0.099,0.893,0.887,0.8220000000000001,0.877,0.0,28.0
29,170.12238606017013,170.61540342017062,170.12351928017011,0.2,,0.0625,1.0,-1.0,170.33619124000091,0.0625,1.0,1.0,0,1.0,1.0,1,0.2126719598308,0,ZFM-02600,0.088,0.905,0.9,0.8220000000000001,0.89,0.0,29.0
30,173.33853108017334,174.3071675401743,173.3188330501733,0.8,0.125,,-1.0,-1.0,173.70519124000091,-0.125,1.0,1.0,0,0.0,1.0,-1,0.38635818982760384,0,ZFM-02600,0.183,0.915,0.803,0.8220000000000001,0.902,0.0,30.0
31,178.17181437017817,179.05545933017905,178.15711584017816,0.8,0.0,,-1.0,-1.0,178.39719124000092,-0.0,1.0,0.75,0,0.0,1.0,-1,0.24007539982275716,0,ZFM-02600,0.268,0.923,0.803,0.647,0.902,0.0,31.0
32,183.5048143501835,183.84801336018384,183.50574759018352,0.8,,0.25,1.0,-1.0,183.65419124000093,0.25,1.0,1.0,0,1.0,1.0,1,0.1484436498174091,0,ZFM-02600,0.24,0.931,0.803,0.714,0.902,0.0,32.0
33,186.6215026501866,187.26887124018728,186.6047043301866,0.8,0.25,,1.0,1.0,186.9661912400009,-0.25,1.0,1.0,0,1.0,0.0,-1,0.3614869098143174,0,ZFM-02600,0.215,0.835,0.8240000000000001,0.714,0.806,0.0,33.0
34,195.35402931019536,195.76582146019578,195.32729865019533,0.8,1.0,,1.0,1.0,195.48719124000093,-1.0,1.0,1.0,0,1.0,0.0,-1,0.15989258980559384,0,ZFM-02600,0.193,0.852,0.843,0.714,0.8260000000000001,0.0,34.0
35,200.28736926020028,201.29270205020129,200.27160417020028,0.8,0.125,,1.0,1.0,200.25319124000092,-0.125,1.0,1.0,0,1.0,0.0,-1,-0.018412930199360744,0,ZFM-02600,0.17300000000000001,0.867,0.859,0.714,0.845,0.0,35.0
36,204.25353927020424,204.64313364020464,204.23424120020422,0.8,0.0625,,1.0,1.0,204.16919124000094,-0.0625,1.0,1.0,0,1.0,0.0,-1,-0.06504996020328235,0,ZFM-02600,0.156,0.881,0.874,0.714,0.861,0.0,36.0
37,208.23680757020824,208.88407617020889,208.23787413020824,0.8,1.0,,1.0,1.0,208.62419124000093,-1.0,1.0,1.0,0,1.0,0.0,-1,0.3863171097926852,0,ZFM-02600,0.14,0.893,0.887,0.714,0.875,0.0,37.0
38,211.63660089021164,212.34189702021234,211.62183570021162,0.8,,0.125,1.0,-1.0,212.16019124000093,0.125,1.0,1.0,0,1.0,1.0,1,0.5383555397893076,0,ZFM-02600,0.126,0.802,0.899,0.714,0.784,0.0,38.0
39,215.61953589021562,216.07479036021607,215.6094702302156,0.8,0.0,,-1.0,-1.0,215.70619124000095,-0.0,1.0,0.75,0,0.0,1.0,-1,0.09672100978534104,0,ZFM-02600,0.214,0.8220000000000001,0.806,0.714,0.807,0.0,39.0
40,221.2028441702212,221.73939051022174,221.1950782802212,0.8,0.0,,-1.0,-1.0,221.30319124000096,-0.0,1.0,0.75,1,0.0,1.0,-1,0.10811295977975988,0,ZFM-02600,0.294,0.84,0.806,0.589,0.807,0.0,40.0
41,225.8023175102258,226.14841623022616,225.7853525402258,0.8,,1.0,1.0,-1.0,225.94519124000095,1.0,1.0,1.0,0,1.0,1.0,1,0.15983869977515042,0,ZFM-02600,0.264,0.856,0.806,0.656,0.807,0.0,41.0
42,230.01896247023,230.46288474023046,230.01066330023002,0.8,0.0625,,1.0,1.0,230.19519124000095,-0.0625,1.0,1.0,0,1.0,0.0,-1,0.18452793977093052,0,ZFM-02600,0.23800000000000002,0.77,0.8260000000000001,0.656,0.724,0.0,42.0
43,233.41845582023342,234.41462286023443,233.41728927023343,0.8,0.0,,-1.0,-1.0,233.30419124000096,-0.0,1.0,0.75,0,0.0,1.0,-1,-0.11309803023246445,0,ZFM-02600,0.315,0.6920000000000001,0.741,0.656,0.649,0.0,43.0
44,239.7848857802398,240.00123081024,239.7858856802398,0.8,0.0,,-1.0,-1.0,239.68219124000098,-0.0,1.0,0.75,0,0.0,1.0,-1,-0.10369444023882579,0,ZFM-02600,0.384,0.723,0.741,0.555,0.649,0.0,44.0
45,243.9012074402439,244.25060583024424,243.88050951024388,0.8,,0.25,1.0,-1.0,244.05419124000096,0.25,1.0,1.0,0,1.0,1.0,1,0.17368172975707807,0,ZFM-02600,0.34500000000000003,0.751,0.741,0.62,0.649,0.0,45.0
46,247.33459740024733,247.95850167024795,247.33549731024735,0.8,0.0,,-1.0,-1.0,247.72219124000097,-0.0,1.0,0.75,0,0.0,1.0,-1,0.38669392975361916,0,ZFM-02600,0.41100000000000003,0.776,0.665,0.62,0.685,0.0,46.0
47,251.65083240025166,252.42618819025242,251.63946687025165,0.8,0.125,,1.0,1.0,251.99119124000097,-0.125,1.0,1.0,0,1.0,0.0,-1,0.35172436974932,0,ZFM-02600,0.37,0.6980000000000001,0.665,0.673,0.685,0.139,47.0
48,257.1837123902572,257.5355438702575,257.1777129902572,0.8,,1.0,1.0,-1.0,257.33619124000097,1.0,1.0,1.0,0,1.0,1.0,1,0.15847824974378,0,ZFM-02600,0.332,0.628,0.6990000000000001,0.673,0.615,0.139,48.0
49,260.38355904026037,264.22667469026425,260.37036036026035,0.8,0.0,,-1.0,-1.0,263.24519124000096,-0.0,1.0,0.75,1,0.0,1.0,-1,2.874830879740614,0,ZFM-02600,0.4,0.665,0.628,0.673,0.654,0.139,49.0
50,270.0997873202701,270.45565173027046,270.0912881702701,0.8,,0.125,1.0,-1.0,270.259191240001,0.125,1.0,1.0,0,1.0,1.0,1,0.167903069730869,0,ZFM-02600,0.359,0.6990000000000001,0.628,0.717,0.654,0.121,50.0
51,273.4663506302735,273.96123447027395,273.46361757027347,0.8,0.0,,-1.0,-1.0,273.575191240001,-0.0,1.0,0.75,0,0.0,1.0,-1,0.1115736697275338,0,ZFM-02600,0.424,0.729,0.5640000000000001,0.717,0.6900000000000001,0.121,51.0
52,277.91603895027794,278.3318640302783,277.8898749002779,0.8,0.0625,,-1.0,-1.0,278.148191240001,-0.0625,1.0,1.0,0,0.0,1.0,-1,0.25831633972308055,0,ZFM-02600,0.482,0.756,0.5640000000000001,0.624,0.6900000000000001,0.105,52.0
53,282.81574893028284,283.1506821002832,282.8168154902828,0.8,,1.0,1.0,-1.0,282.974191240001,1.0,1.0,1.0,0,1.0,1.0,1,0.15737574971819868,0,ZFM-02600,0.433,0.781,0.5640000000000001,0.671,0.6900000000000001,0.092,53.0
54,286.1156522402861,287.2868017802873,286.1024535602861,0.8,0.0,,-1.0,-1.0,287.121191240001,-0.0,1.0,0.75,0,0.0,1.0,-1,1.0187376797148886,0,ZFM-02600,0.49,0.803,0.507,0.671,0.721,0.092,54.0
55,291.0819888902911,292.74318942029277,291.06875688029106,0.8,0.0625,,1.0,1.0,291.19419124000103,-0.0625,1.0,1.0,0,1.0,0.0,-1,0.12543435970997052,0,ZFM-02600,0.441,0.722,0.507,0.712,0.721,0.203,55.0
56,295.64816556029564,296.16981339029616,295.64136624029567,0.8,0.25,,1.0,1.0,295.978191240001,-0.25,1.0,1.0,0,1.0,0.0,-1,0.33682499970535673,0,ZFM-02600,0.397,0.75,0.557,0.712,0.749,0.203,56.0
57,300.7813855203008,301.1571479403012,300.78231876030077,0.8,,0.25,1.0,-1.0,300.947191240001,0.25,1.0,1.0,0,1.0,1.0,1,0.1648724797002501,0,ZFM-02600,0.357,0.675,0.602,0.712,0.673,0.203,57.0
58,306.26430384030624,306.988198110307,306.2633039403063,0.8,0.0625,,1.0,1.0,306.73919124000105,-0.0625,1.0,1.0,0,1.0,0.0,-1,0.4758872996947616,0,ZFM-02600,0.321,0.607,0.642,0.712,0.605,0.203,58.0
59,311.3141988003113,311.65696452031165,311.31189903031134,0.8,,0.125,1.0,-1.0,311.481191240001,0.125,1.0,1.0,0,1.0,1.0,1,0.1692922096896723,0,ZFM-02600,0.289,0.546,0.678,0.712,0.544,0.203,59.0
60,314.43058713031445,315.54154269031557,314.42622090031443,0.8,,0.0,-1.0,1.0,315.087191240001,0.0,1.0,0.75,1,0.0,0.0,1,0.6609703396865712,0,ZFM-02600,0.36,0.492,0.61,0.712,0.489,0.203,60.0
61,319.4303537703194,319.9364364903199,319.4074893903194,0.8,0.25,,1.0,1.0,319.555191240001,-0.25,1.0,1.0,0,1.0,0.0,-1,0.14770184968159583,0,ZFM-02600,0.324,0.543,0.61,0.746,0.489,0.179,61.0
62,324.84637878032487,325.24217253032526,324.82544754032483,0.8,0.0625,,1.0,1.0,325.02219124000106,-0.0625,1.0,1.0,0,1.0,0.0,-1,0.19674369967623306,0,ZFM-02600,0.292,0.588,0.649,0.746,0.541,0.179,62.0
63,328.11301875032814,328.6970270103287,328.0927541103281,0.8,0.25,,1.0,1.0,328.47919124000106,-0.25,1.0,1.0,0,1.0,0.0,-1,0.38643712967297006,0,ZFM-02600,0.263,0.63,0.684,0.746,0.587,0.179,63.0
64,331.6795287303317,332.5973702703326,331.6620638103317,0.8,0.0,,1.0,1.0,332.175191240001,-0.0,1.0,0.75,0,1.0,0.0,-1,0.5131274296693391,0,ZFM-02600,0.23600000000000002,0.667,0.716,0.746,0.629,0.179,64.0
65,335.4126553803354,336.006695970336,335.4086891103354,0.8,0.125,,1.0,1.0,335.71519124000105,-0.125,1.0,1.0,0,1.0,0.0,-1,0.3065021296656596,0,ZFM-02600,0.213,0.7000000000000001,0.745,0.746,0.666,0.179,65.0
66,339.3458620203393,339.54284232033956,339.34499544033935,0.8,0.25,,1.0,1.0,339.21319124000104,-0.25,1.0,1.0,0,1.0,0.0,-1,-0.13180420033830842,0,ZFM-02600,0.191,0.73,0.77,0.746,0.7000000000000001,0.179,66.0
67,342.34572867034234,343.012661970343,342.33529638034236,0.8,0.0,,1.0,1.0,342.73019124000103,-0.0,1.0,0.75,0,1.0,0.0,-1,0.39489485965867743,0,ZFM-02600,0.17200000000000001,0.757,0.793,0.746,0.73,0.179,67.0
68,347.24557197034727,347.6881943703477,347.23490637034723,0.8,,0.25,1.0,-1.0,347.43919124000104,0.25,1.0,1.0,0,1.0,1.0,1,0.20428486965380444,0,ZFM-02600,0.155,0.681,0.8140000000000001,0.746,0.656,0.179,68.0
69,352.6116353103526,353.042158920353,352.6102021203526,0.8,0.125,,1.0,1.0,352.8001912400011,-0.125,1.0,1.0,0,1.0,0.0,-1,0.1899891196484873,0,ZFM-02600,0.139,0.613,0.833,0.746,0.591,0.179,69.0
70,356.06152362035607,358.22784030035825,356.04952482035605,0.8,,0.0,-1.0,1.0,357.67819124000107,0.0,1.0,0.75,0,0.0,0.0,1,1.6286664196450147,0,ZFM-02600,0.226,0.652,0.749,0.746,0.632,0.179,70.0
71,363.42768693036345,363.8351128503638,363.4287868203634,0.8,,0.0,-1.0,1.0,363.51319124000105,0.0,1.0,0.75,0,0.0,0.0,1,0.08440441963762169,0,ZFM-02600,0.303,0.687,0.749,0.658,0.632,0.158,71.0
72,368.2941669003683,368.72752356036875,368.28573441036826,0.8,1.0,,1.0,1.0,368.5181912400011,-1.0,1.0,1.0,0,1.0,0.0,-1,0.23245682963283798,0,ZFM-02600,0.273,0.718,0.749,0.6980000000000001,0.632,0.14,72.0
73,372.1940102103722,372.987764160373,372.1850111103722,0.8,0.0625,,1.0,1.0,372.5311912400011,-0.0625,1.0,1.0,0,1.0,0.0,-1,0.3461801296288627,0,ZFM-02600,0.245,0.746,0.774,0.6980000000000001,0.669,0.14,73.0
74,375.76025355037575,376.4403188703764,375.74665491037575,0.8,,0.0,-1.0,1.0,376.2281912400011,0.0,1.0,0.75,0,0.0,0.0,1,0.4815363296253281,0,ZFM-02600,0.321,0.772,0.6970000000000001,0.6980000000000001,0.7020000000000001,0.14,74.0
75,380.2602035103803,382.06005684038206,380.24293857038026,0.8,0.0625,,1.0,1.0,381.8551912400011,-0.0625,1.0,1.0,0,1.0,0.0,-1,1.6122526696208297,0,ZFM-02600,0.289,0.794,0.6970000000000001,0.732,0.7020000000000001,0.124,75.0
76,384.8098151703848,385.22467368038525,384.79891626038483,0.8,1.0,,1.0,1.0,385.0611912400011,-1.0,1.0,1.0,0,1.0,0.0,-1,0.2622749796162793,0,ZFM-02600,0.26,0.8150000000000001,0.727,0.732,0.732,0.124,76.0
77,388.05962349038805,388.3153979103883,388.03355943038804,0.8,1.0,,1.0,1.0,388.0561912400011,-1.0,1.0,1.0,0,1.0,0.0,-1,0.022631809613073983,0,ZFM-02600,0.234,0.834,0.755,0.732,0.759,0.124,77.0
78,391.07622180039107,391.28620080039127,391.0478579703911,0.8,0.125,,-1.0,-1.0,390.9491912400011,-0.125,1.0,1.0,0,0.0,1.0,-1,-0.09866673038999352,0,ZFM-02600,0.311,0.75,0.679,0.732,0.683,0.124,78.0
79,395.5759384503956,395.994163290396,395.56813923039556,0.8,,0.0,-1.0,1.0,395.6411912400011,0.0,1.0,0.75,0,0.0,0.0,1,0.07305200960553293,0,ZFM-02600,0.38,0.675,0.679,0.65,0.683,0.222,79.0
80,402.6254667604026,403.022760360403,402.6161010304026,0.8,,0.125,1.0,-1.0,402.62019124000113,0.125,1.0,1.0,0,1.0,1.0,1,0.004090209598530237,0,ZFM-02600,0.342,0.608,0.679,0.6890000000000001,0.683,0.308,80.0
81,405.8920067404059,406.4524840204065,405.8837409004059,0.8,0.25,,1.0,1.0,406.2071912400011,-0.25,1.0,1.0,0,1.0,0.0,-1,0.32345033959524017,0,ZFM-02600,0.307,0.547,0.711,0.6890000000000001,0.614,0.308,81.0
82,409.40845506040944,410.04382485041003,409.4093549704094,0.8,0.0,,1.0,1.0,409.68519124000113,-0.0,1.0,0.75,0,1.0,0.0,-1,0.27583626959170715,0,ZFM-02600,0.277,0.592,0.74,0.6890000000000001,0.653,0.308,82.0
83,413.4917466904135,414.1298495404141,413.47468173041347,0.8,0.0625,,1.0,1.0,413.50019124000113,-0.0625,1.0,1.0,0,1.0,0.0,-1,0.02550950958766407,0,ZFM-02600,0.249,0.633,0.766,0.6890000000000001,0.6880000000000001,0.308,83.0
84,419.9080050004199,420.3047986504203,419.9036054404199,0.8,0.0,,1.0,1.0,420.0731912400011,-0.0,1.0,0.75,0,1.0,0.0,-1,0.16958579958122755,0,ZFM-02600,0.224,0.67,0.789,0.6890000000000001,0.719,0.308,84.0
85,426.9240366604269,427.6625628004277,426.9025721404269,0.8,0.125,,-1.0,-1.0,427.1451912400011,-0.125,1.0,1.0,0,0.0,1.0,-1,0.24261909957419903,0,ZFM-02600,0.302,0.603,0.71,0.6890000000000001,0.647,0.308,85.0
86,433.9069049704339,435.5040452404355,433.8871736104339,0.8,,0.0625,1.0,-1.0,434.91219124000116,0.0625,1.0,1.0,0,1.0,1.0,1,1.0250176295672873,0,ZFM-02600,0.272,0.642,0.71,0.723,0.647,0.275,86.0
87,438.30659829043833,438.9255030604389,438.3001322704383,0.8,0.25,,1.0,1.0,438.73819124000113,-0.25,1.0,1.0,0,1.0,0.0,-1,0.4380589695628032,0,ZFM-02600,0.244,0.578,0.739,0.723,0.582,0.275,87.0
88,441.72305661044174,442.26973527044225,441.7104245404417,0.8,,1.0,1.0,-1.0,442.09319124000115,1.0,1.0,1.0,0,1.0,1.0,1,0.3827666995594541,0,ZFM-02600,0.22,0.52,0.766,0.723,0.524,0.275,88.0
89,446.2230399004462,447.1339821304471,446.21740713044625,0.8,0.0,,1.0,1.0,446.32119124000116,-0.0,1.0,0.75,1,1.0,0.0,-1,0.10378410955490835,0,ZFM-02600,0.198,0.468,0.789,0.723,0.47100000000000003,0.275,89.0
90,449.9059382404499,451.9325355604519,449.8920396304499,0.8,0.25,,1.0,1.0,451.50619124000116,-0.25,1.0,1.0,0,1.0,0.0,-1,1.614151609551243,0,ZFM-02600,0.178,0.521,0.81,0.723,0.524,0.275,90.0
91,454.7889832204548,455.25703641045527,454.7816506204548,0.8,,0.25,1.0,-1.0,455.0891912400011,0.25,1.0,1.0,0,1.0,1.0,1,0.30754061954633016,0,ZFM-02600,0.16,0.46900000000000003,0.8290000000000001,0.723,0.47200000000000003,0.275,91.0
92,459.9221365204599,460.3011986104603,459.8989388404599,0.8,0.0625,,1.0,1.0,460.0511912400012,-0.0625,1.0,1.0,0,1.0,0.0,-1,0.15225239954128256,0,ZFM-02600,0.14400000000000002,0.422,0.846,0.723,0.425,0.275,92.0
93,465.988596480466,466.3663587004664,465.968231850466,0.8,0.0,,1.0,1.0,466.1491912400012,-0.0,1.0,0.75,0,1.0,0.0,-1,0.18095938953518953,0,ZFM-02600,0.13,0.48,0.862,0.723,0.482,0.275,93.0
94,469.15494648046916,469.91980332046995,469.14088122046917,0.8,1.0,,1.0,1.0,469.71819124000115,-1.0,1.0,1.0,0,1.0,0.0,-1,0.5773100195319785,0,ZFM-02600,0.117,0.532,0.875,0.723,0.534,0.275,94.0
95,477.13788144047714,477.5500735504776,477.13481508047715,0.8,0.125,,1.0,1.0,477.35219124000116,-0.125,1.0,1.0,0,1.0,0.0,-1,0.21737615952400802,0,ZFM-02600,0.105,0.579,0.888,0.723,0.581,0.275,95.0
96,480.37109142048035,481.3891229404814,480.34712715048033,0.8,0.0,,-1.0,-1.0,480.29919124000116,-0.0,0.0,0.25,0,0.0,1.0,-1,-0.04793591047916834,0,ZFM-02600,0.195,0.521,0.799,0.723,0.523,0.275,0.0
97,486.03732474048604,486.3514599904864,486.03205860048604,0.8,0.25,,1.0,1.0,486.15019124000116,-0.25,0.0,0.0,0,1.0,0.0,-1,0.11813263951512454,0,ZFM-02600,0.17500000000000002,0.46900000000000003,0.799,0.753,0.523,0.353,1.0
98,489.2039413804892,490.3504933804904,489.1917092704892,0.8,0.0625,,1.0,1.0,489.78019124000116,-0.0625,0.0,0.0,0,1.0,0.0,-1,0.5884819695119745,0,ZFM-02600,0.158,0.522,0.8190000000000001,0.753,0.5700000000000001,0.353,2.0
99,493.15364637049316,493.6791271504937,493.14401400049314,0.2,,0.0625,1.0,-1.0,,0.0625,0.0,0.0,0,1.0,1.0,1,,0,ZFM-02600,0.14200000000000002,0.47000000000000003,0.837,0.753,0.513,0.353,3.0
100,496.8700746904969,497.6265657004976,496.8483102004968,0.2,,0.125,1.0,-1.0,497.4031912400012,0.125,0.0,0.0,0,1.0,1.0,1,0.5548810395043802,0,ZFM-02600,0.128,0.523,0.854,0.753,0.562,0.353,4.0
101,500.4864130205005,501.0814868405011,500.4826467305005,0.2,0.125,,1.0,1.0,500.7771912400012,-0.125,0.0,0.0,0,1.0,0.0,-1,0.2945445095006676,0,ZFM-02600,0.115,0.47100000000000003,0.868,0.753,0.506,0.353,5.0
102,503.986263000504,504.6960253505047,503.984263200504,0.2,0.25,,1.0,1.0,504.3491912400012,-0.25,0.0,0.0,0,1.0,0.0,-1,0.36492803949715835,0,ZFM-02600,0.10300000000000001,0.524,0.881,0.753,0.555,0.353,6.0
103,507.5526729905076,507.8334782405078,507.54187407050756,0.2,,0.25,1.0,-1.0,507.5561912400012,0.25,0.0,0.0,0,1.0,1.0,1,0.01431716949366546,0,ZFM-02600,0.093,0.47100000000000003,0.893,0.753,0.5,0.353,7.0
104,510.81931296051084,511.3951887005114,510.7878494405108,0.2,,0.125,1.0,-1.0,511.2171912400012,0.125,0.0,0.0,0,1.0,1.0,1,0.4293417994904303,0,ZFM-02600,0.084,0.524,0.904,0.753,0.55,0.353,8.0
105,514.4523162905144,514.7526195905148,514.4424839405144,0.2,,1.0,1.0,-1.0,514.3281912400012,1.0,0.0,0.0,0,1.0,1.0,1,-0.11429270051326057,0,ZFM-02600,0.075,0.5720000000000001,0.914,0.753,0.595,0.353,9.0
106,518.5022112605185,518.7785836205188,518.4871461005185,0.2,,0.125,1.0,-1.0,518.6011912400012,0.125,0.0,0.0,0,1.0,1.0,1,0.11404513948264139,0,ZFM-02600,0.068,0.614,0.922,0.753,0.635,0.353,10.0
107,521.7020579105217,522.2462034905222,521.6854262405217,0.2,0.25,,1.0,1.0,521.9971912400013,-0.25,0.0,0.0,0,1.0,0.0,-1,0.31176499947957836,0,ZFM-02600,0.061,0.553,0.93,0.753,0.5720000000000001,0.353,11.0
108,527.918336220528,529.8232790405299,527.8954051805279,0.2,,0.0,1.0,-1.0,529.4561912400012,0.0,0.0,0.25,0,1.0,1.0,1,1.5607860594733438,0,ZFM-02600,0.055,0.498,0.937,0.753,0.515,0.353,12.0
109,536.034224550536,536.4798466505365,536.021659140536,0.2,0.25,,1.0,1.0,536.2311912400012,-0.25,0.0,0.0,0,1.0,0.0,-1,0.20953209946515017,0,ZFM-02600,0.049,0.448,0.9430000000000001,0.753,0.463,0.353,13.0
110,539.3510595005393,539.6852927405397,539.3349611105393,0.2,0.25,,1.0,1.0,539.3391912400012,-0.25,0.0,0.0,0,1.0,0.0,-1,0.004230129461916476,0,ZFM-02600,0.045,0.503,0.9490000000000001,0.753,0.517,0.353,14.0
111,546.5504061605466,547.4716473605474,546.5395739105466,0.2,,0.0,1.0,-1.0,547.2131912400013,0.0,0.0,0.25,1,1.0,1.0,1,0.6736173294547143,0,ZFM-02600,0.04,0.453,0.9540000000000001,0.753,0.465,0.353,15.0
112,550.3834894805503,551.5271084405515,550.3818563105503,0.2,,0.0,1.0,-1.0,550.7391912400012,0.0,0.0,0.25,0,1.0,1.0,1,0.35733492945087164,0,ZFM-02600,0.036000000000000004,0.508,0.9590000000000001,0.753,0.519,0.353,16.0
113,554.5667044505545,556.3684242605564,554.5458398705546,0.2,,0.0625,1.0,-1.0,556.1211912400013,0.0625,0.0,0.0,0,1.0,1.0,1,1.5753513694467074,0,ZFM-02600,0.032,0.557,0.963,0.753,0.5670000000000001,0.353,17.0
114,559.3498260905593,559.6463631005596,559.3461264605594,0.2,,0.125,1.0,-1.0,559.3211912400012,0.125,0.0,0.0,0,1.0,1.0,1,-0.024935220558177207,0,ZFM-02600,0.029,0.601,0.967,0.753,0.61,0.353,18.0
115,562.7328544205627,563.1644112605632,562.7070903305627,0.2,,0.25,1.0,-1.0,562.9141912400013,0.25,0.0,0.0,0,1.0,1.0,1,0.2071009094386227,0,ZFM-02600,0.026000000000000002,0.641,0.97,0.753,0.649,0.353,19.0
116,565.9660977305659,566.2520358005662,565.9620648005659,0.2,,0.0,1.0,-1.0,566.0471912400012,0.0,0.0,0.25,0,1.0,1.0,1,0.0851264394352711,0,ZFM-02600,0.024,0.677,0.973,0.753,0.684,0.353,20.0
117,569.1825093905692,569.7352541105697,569.1683774705692,0.2,,0.0625,1.0,-1.0,569.4051912400013,0.0625,0.0,0.0,0,1.0,1.0,1,0.23681376943204668,0,ZFM-02600,0.021,0.709,0.976,0.753,0.716,0.353,21.0
118,572.5822027205726,573.0813528005731,572.5693373405726,0.2,0.0,,-1.0,-1.0,572.9031912400012,-0.0,0.0,0.25,1,0.0,1.0,-1,0.3338538994286182,0,ZFM-02600,0.11900000000000001,0.738,0.878,0.753,0.744,0.353,22.0
119,577.048656030577,577.6461629405776,577.0446564305771,0.2,,0.125,1.0,-1.0,577.4351912400012,0.125,0.0,0.0,0,1.0,1.0,1,0.390534809424139,0,ZFM-02600,0.107,0.764,0.878,0.78,0.744,0.315,23.0
120,581.3985210005814,581.7549853505817,581.3892885905814,0.2,,1.0,1.0,-1.0,581.5621912400013,1.0,0.0,0.0,0,1.0,1.0,1,0.17290264941993883,0,ZFM-02600,0.097,0.788,0.89,0.78,0.77,0.315,24.0
121,584.7315543305847,585.1882086605852,584.7062568605847,0.2,,1.0,1.0,-1.0,585.0141912400013,1.0,0.0,0.0,0,1.0,1.0,1,0.3079343794165652,0,ZFM-02600,0.08700000000000001,0.809,0.901,0.78,0.793,0.315,25.0
122,588.1982742905882,588.7663508105887,588.1672107305882,0.2,,0.0625,1.0,-1.0,588.5491912400013,0.0625,0.0,0.0,0,1.0,1.0,1,0.381980509413097,0,ZFM-02600,0.078,0.8280000000000001,0.911,0.78,0.8140000000000001,0.315,26.0
123,592.6143659705926,592.9594981205929,592.6085332205926,0.2,,0.125,1.0,-1.0,592.7691912400013,0.125,0.0,0.0,0,1.0,1.0,1,0.1606580194087428,0,ZFM-02600,0.07,0.845,0.92,0.78,0.8320000000000001,0.315,27.0
124,597.8808059405978,598.2581348705983,597.8724734405979,0.2,,0.25,1.0,-1.0,598.0321912400012,0.25,0.0,0.0,0,1.0,1.0,1,0.15971779940332453,0,ZFM-02600,0.063,0.861,0.928,0.78,0.849,0.315,28.0
125,601.2473692506013,601.8261780306018,601.2484358106012,0.2,,1.0,1.0,-1.0,601.6511912400013,1.0,0.0,0.0,0,1.0,1.0,1,0.40275542940003106,0,ZFM-02600,0.057,0.875,0.935,0.78,0.864,0.315,29.0
126,604.6972575606047,605.055521730605,604.6840922106047,0.2,0.0625,,1.0,1.0,604.7711912400013,-0.0625,0.0,0.0,0,1.0,0.0,-1,0.08709902939654057,0,ZFM-02600,0.051000000000000004,0.787,0.9420000000000001,0.78,0.778,0.315,30.0
127,608.029990920608,608.4846454506085,608.002060380608,0.2,,1.0,1.0,-1.0,608.3121912400013,1.0,0.0,0.0,0,1.0,1.0,1,0.3101308593933254,0,ZFM-02600,0.046,0.709,0.9470000000000001,0.78,0.7000000000000001,0.315,31.0
128,612.6134991906126,612.9444994206129,612.6130325706126,0.2,,0.0625,1.0,-1.0,612.6971912400013,0.0625,0.0,0.0,0,1.0,1.0,1,0.08415866938867111,0,ZFM-02600,0.042,0.738,0.9530000000000001,0.78,0.73,0.315,32.0
129,618.6964908306187,619.0843520406191,618.6692935506187,0.2,,0.25,1.0,-1.0,618.8831912400013,0.25,0.0,0.0,0,1.0,1.0,1,0.21389768938263387,0,ZFM-02600,0.037,0.764,0.9570000000000001,0.78,0.757,0.315,33.0
130,625.4958441606256,625.7847152706258,625.4909113206255,0.2,,0.25,1.0,-1.0,625.5231912400013,0.25,0.0,0.0,0,1.0,1.0,1,0.032279919375810096,0,ZFM-02600,0.034,0.788,0.962,0.78,0.781,0.315,34.0
131,628.6624274706287,630.8126790906308,628.6548948906286,0.2,0.0625,,1.0,1.0,630.6021912400013,-0.0625,0.0,0.0,0,1.0,0.0,-1,1.9472963493726638,0,ZFM-02600,0.03,0.709,0.966,0.78,0.7030000000000001,0.315,35.0
132,635.2783658106353,636.3866216406363,635.2738662606353,0.2,,0.0,1.0,-1.0,635.4321912400013,0.0,0.0,0.25,0,1.0,1.0,1,0.15832497936605705,0,ZFM-02600,0.027,0.638,0.969,0.78,0.633,0.315,36.0
133,639.3618574206394,639.8913711306399,639.3428259906393,0.2,,0.0625,1.0,-1.0,639.6261912400013,0.0625,0.0,0.0,0,1.0,1.0,1,0.28336524936196383,0,ZFM-02600,0.025,0.674,0.972,0.78,0.67,0.315,37.0
134,643.0949840706431,643.4599809006435,643.0894512906431,0.2,,0.125,1.0,-1.0,643.0151912400013,0.125,0.0,0.0,0,1.0,1.0,1,-0.07426005064178298,0,ZFM-02600,0.022,0.707,0.975,0.78,0.7030000000000001,0.315,38.0
135,649.97796237065,650.3677567206504,649.9690632606499,0.2,,0.125,1.0,-1.0,650.1671912400013,0.125,0.0,0.0,0,1.0,1.0,1,0.1981279793513977,0,ZFM-02600,0.02,0.736,0.977,0.78,0.732,0.315,39.0
136,653.4775790406535,654.0525882006541,653.4543813606534,0.2,,0.25,1.0,-1.0,653.8581912400014,0.25,0.0,0.0,0,1.0,1.0,1,0.4038098793479321,0,ZFM-02600,0.018000000000000002,0.762,0.98,0.78,0.759,0.315,40.0
137,656.977495680657,657.3006300306573,656.9640303606569,0.2,,1.0,1.0,-1.0,656.8211912400013,1.0,0.0,0.0,0,1.0,1.0,1,-0.14283912065559434,0,ZFM-02600,0.016,0.786,0.982,0.78,0.783,0.315,41.0
138,660.7106556606607,661.1242809606612,660.7073226606607,0.2,,0.25,1.0,-1.0,660.9241912400014,0.25,0.0,0.0,0,1.0,1.0,1,0.21686857934071213,0,ZFM-02600,0.014,0.808,0.984,0.78,0.805,0.315,42.0
139,665.1102489906651,665.8300103406658,665.1112822206651,0.2,0.25,,1.0,1.0,665.5291912400013,-0.25,0.0,0.0,0,1.0,0.0,-1,0.41790901933620717,0,ZFM-02600,0.013000000000000001,0.727,0.985,0.78,0.724,0.315,43.0
140,670.01002563067,671.6964569706716,670.00989231067,0.2,0.25,,1.0,1.0,670.1181912400014,-0.25,0.0,0.0,0,1.0,0.0,-1,0.10829892933134033,0,ZFM-02600,0.012,0.754,0.987,0.78,0.752,0.315,44.0
141,677.8097455806778,678.1755423306781,677.8065125706778,0.2,,0.25,1.0,-1.0,677.8811912400014,0.25,0.0,0.0,0,1.0,1.0,1,0.07467866932358902,0,ZFM-02600,0.011,0.679,0.988,0.78,0.677,0.315,45.0
142,681.1262139006811,681.984194760682,681.1144817406811,0.2,0.0,,-1.0,-1.0,681.7651912400014,-0.0,0.0,0.25,0,0.0,1.0,-1,0.6507094993203282,0,ZFM-02600,0.11,0.711,0.889,0.78,0.709,0.315,46.0
143,686.5757022306866,687.015424920687,686.5477716906865,0.2,,0.0,-1.0,1.0,686.7931912400013,0.0,0.0,0.25,0,0.0,0.0,1,0.24541954931476084,0,ZFM-02600,0.199,0.64,0.889,0.6960000000000001,0.709,0.389,47.0
144,693.0251905506931,693.3922871706934,693.017391330693,0.2,,0.25,1.0,-1.0,693.1731912400014,0.25,0.0,0.0,0,1.0,1.0,1,0.15579990930837084,0,ZFM-02600,0.179,0.5760000000000001,0.889,0.729,0.709,0.453,48.0
145,701.1750754807011,702.3133616407023,701.1759753907012,0.2,,0.0,1.0,-1.0,702.1351912400014,0.0,0.0,0.25,0,1.0,1.0,1,0.9592158493002216,0,ZFM-02600,0.161,0.618,0.9,0.729,0.738,0.453,49.0
146,705.5247404707055,706.1334129307062,705.5202742507055,0.2,,0.0625,1.0,-1.0,705.8781912400013,0.0625,0.0,0.0,0,1.0,1.0,1,0.3579169892958589,0,ZFM-02600,0.145,0.656,0.91,0.729,0.764,0.453,50.0
147,708.991193790709,709.7542508107098,708.9805948507089,0.2,0.0,,-1.0,-1.0,709.3691912400013,-0.0,0.0,0.25,0,0.0,1.0,-1,0.38859638929238827,0,ZFM-02600,0.23,0.6910000000000001,0.8190000000000001,0.729,0.788,0.453,51.0
148,716.5906004407166,716.959830180717,716.5902004807166,0.2,,0.0625,1.0,-1.0,716.5981912400014,0.0625,0.0,0.0,0,1.0,1.0,1,0.007990759284780324,0,ZFM-02600,0.20700000000000002,0.722,0.8190000000000001,0.757,0.788,0.406,52.0
149,719.97399540072,722.014757970722,719.97316215072,0.2,,0.0,1.0,-1.0,721.6891912400014,0.0,0.0,0.25,0,1.0,1.0,1,1.7160290892813919,0,ZFM-02600,0.187,0.75,0.837,0.757,0.809,0.406,53.0
150,725.0901170707251,725.3159944807253,725.0701190707251,0.2,,0.0625,1.0,-1.0,724.9811912400014,0.0625,0.0,0.0,0,1.0,1.0,1,-0.08892783072371913,0,ZFM-02600,0.168,0.775,0.854,0.757,0.8280000000000001,0.406,54.0
151,728.923233720729,729.9224337907299,728.9191008007289,0.2,,0.125,1.0,-1.0,729.6521912400013,0.125,0.0,0.0,0,1.0,1.0,1,0.7330904392724733,0,ZFM-02600,0.151,0.797,0.868,0.757,0.845,0.406,55.0
152,732.8063787007328,733.1644762207331,732.7853808007328,0.2,,0.125,1.0,-1.0,732.9761912400014,0.125,0.0,0.0,0,1.0,1.0,1,0.19081043926860275,0,ZFM-02600,0.136,0.8170000000000001,0.881,0.757,0.861,0.406,56.0
153,737.3229270007373,737.7908135407378,737.3216937907373,0.2,0.125,,1.0,1.0,737.5351912400014,-0.125,0.0,0.0,0,1.0,0.0,-1,0.2134974492640822,0,ZFM-02600,0.122,0.736,0.893,0.757,0.775,0.406,57.0
154,743.6893569607437,745.1787746707452,743.6623263307437,0.2,,0.0,1.0,-1.0,744.9401912400015,0.0,0.0,0.25,0,1.0,1.0,1,1.2778649092578007,0,ZFM-02600,0.11,0.662,0.904,0.757,0.6970000000000001,0.406,58.0
155,748.055553630748,748.8800378407489,748.039588560748,0.2,,0.0625,1.0,-1.0,748.7061912400014,0.0625,0.0,0.0,0,1.0,1.0,1,0.6666026792534012,0,ZFM-02600,0.099,0.6960000000000001,0.914,0.757,0.728,0.406,59.0
156,757.2551335807573,758.3322258607583,757.2268364107572,0.2,1.0,,1.0,1.0,757.5731912400014,-1.0,0.0,0.0,0,1.0,0.0,-1,0.3463548292442056,0,ZFM-02600,0.089,0.626,0.922,0.757,0.655,0.406,60.0
157,761.5046752507615,762.023556690762,761.4858104707615,0.2,,0.25,1.0,-1.0,761.7241912400015,0.25,0.0,0.0,0,1.0,1.0,1,0.23838076923993867,0,ZFM-02600,0.08,0.5640000000000001,0.93,0.757,0.589,0.406,61.0
158,765.3378585607653,765.7211202307657,765.3357921007654,0.2,,0.0625,-1.0,1.0,765.4641912400015,0.0625,0.0,0.0,0,0.0,0.0,1,0.12839913923608037,0,ZFM-02600,0.17200000000000001,0.507,0.837,0.757,0.53,0.406,62.0
159,771.1208468707712,771.5159406907716,771.1200802807712,0.2,,1.0,1.0,-1.0,771.2491912400014,1.0,0.0,0.0,0,1.0,1.0,1,0.1291109592302746,0,ZFM-02600,0.155,0.457,0.837,0.783,0.53,0.468,63.0
160,774.7707485107748,775.2729982807753,774.7647157807747,0.2,,1.0,1.0,-1.0,775.0961912400014,1.0,0.0,0.0,0,1.0,1.0,1,0.33147545922668087,0,ZFM-02600,0.14,0.511,0.853,0.783,0.577,0.468,64.0
161,778.7872468207788,780.5543367607805,778.7860136107788,0.2,0.0625,,-1.0,-1.0,779.0401912400015,-0.0625,0.0,0.0,0,0.0,1.0,-1,0.2541776292226814,0,ZFM-02600,0.226,0.56,0.768,0.783,0.62,0.468,65.0
162,785.1534434707852,785.5249729807855,785.1502771207852,0.2,,0.25,1.0,-1.0,785.3171912400014,0.25,0.0,0.0,0,1.0,1.0,1,0.16691411921624422,0,ZFM-02600,0.203,0.604,0.768,0.805,0.62,0.419,66.0
163,788.8196101507888,789.1205133907891,788.8086112507888,0.2,,0.25,1.0,-1.0,788.8911912400015,0.25,0.0,0.0,0,1.0,1.0,1,0.08257998921271792,0,ZFM-02600,0.183,0.643,0.791,0.805,0.658,0.419,67.0
164,792.0864834307921,794.2805640007942,792.0815839207921,0.8,0.0625,,-1.0,-1.0,794.0961912400014,-0.0625,0.0,0.0,0,0.0,1.0,-1,2.01460731920929,0,ZFM-02600,0.264,0.679,0.712,0.805,0.6920000000000001,0.419,68.0
165,798.8194434007988,799.1936393107992,798.7875132607988,0.8,,0.25,1.0,-1.0,798.9741912400015,0.25,0.0,0.0,0,1.0,1.0,1,0.18667797920261364,0,ZFM-02600,0.23800000000000002,0.711,0.712,0.8260000000000001,0.6920000000000001,0.376,69.0
166,802.5025083908025,802.9342652108029,802.5008085608025,0.8,,0.125,1.0,-1.0,802.7251912400014,0.125,0.0,0.0,0,1.0,1.0,1,0.22438267919892496,0,ZFM-02600,0.214,0.74,0.741,0.8260000000000001,0.723,0.376,70.0
167,805.8187100708059,806.3924860208064,805.8085110908058,0.8,0.0625,,1.0,1.0,806.1281912400015,-0.0625,0.0,0.0,0,1.0,0.0,-1,0.3196801491956194,0,ZFM-02600,0.193,0.666,0.767,0.8260000000000001,0.65,0.376,71.0
168,809.5182734108096,810.0236228708101,809.5074744908095,0.8,0.25,,1.0,1.0,809.8401912400014,-0.25,0.0,0.0,0,1.0,0.0,-1,0.3327167491919454,0,ZFM-02600,0.17400000000000002,0.6990000000000001,0.79,0.8260000000000001,0.685,0.376,72.0
169,816.1180800308161,816.5318053208165,816.0950490008161,0.8,1.0,,1.0,1.0,816.2801912400015,-1.0,0.0,0.0,0,1.0,0.0,-1,0.18514223918543848,0,ZFM-02600,0.156,0.73,0.811,0.8260000000000001,0.717,0.376,73.0
170,821.7848133008218,822.000858360822,821.7693148508217,0.8,0.0,,1.0,1.0,821.7321912400015,-0.0,0.0,0.25,0,1.0,0.0,-1,-0.03712361082023108,0,ZFM-02600,0.14100000000000001,0.757,0.8300000000000001,0.8260000000000001,0.745,0.376,74.0
171,825.0178899608251,826.3932857408264,825.002624820825,0.8,0.0,,-1.0,-1.0,825.6451912400015,-0.0,0.0,0.25,0,0.0,1.0,-1,0.6425664191765463,0,ZFM-02600,0.226,0.681,0.747,0.8260000000000001,0.671,0.376,75.0
172,830.3842199408303,830.9046345608309,830.3715878708304,0.8,0.0625,,1.0,1.0,830.7031912400015,-0.0625,0.0,0.0,0,1.0,0.0,-1,0.3316033691711482,0,ZFM-02600,0.20400000000000001,0.613,0.747,0.844,0.671,0.44,76.0
173,837.8837365808379,838.2659983508382,837.8811701708379,0.8,1.0,,1.0,1.0,837.9941912400014,-1.0,0.0,0.0,0,1.0,0.0,-1,0.11302106916355115,0,ZFM-02600,0.183,0.652,0.772,0.844,0.704,0.44,77.0
174,841.2670315508412,842.2342348208423,841.2651650708412,0.8,,0.25,1.0,-1.0,842.0751912400015,0.25,0.0,0.0,0,1.0,1.0,1,0.81002616916021,0,ZFM-02600,0.165,0.586,0.795,0.844,0.633,0.44,78.0
175,845.7499832108458,846.1612754108462,845.7177864308458,0.8,0.0625,,1.0,1.0,845.8781912400015,-0.0625,0.0,0.0,0,1.0,0.0,-1,0.16040480915569333,0,ZFM-02600,0.149,0.528,0.8160000000000001,0.844,0.5700000000000001,0.44,79.0
176,849.1996048808492,849.5436038108495,849.1694412308492,0.8,1.0,,1.0,1.0,849.3351912400014,-1.0,0.0,0.0,0,1.0,0.0,-1,0.1657500091522479,0,ZFM-02600,0.134,0.5750000000000001,0.834,0.844,0.613,0.44,80.0
177,852.4495131908525,853.7676480308538,852.4374144008524,0.8,0.0,,1.0,1.0,853.5101912400015,-0.0,0.0,0.25,0,1.0,0.0,-1,1.0727768391491281,0,ZFM-02600,0.12,0.617,0.851,0.844,0.652,0.44,81.0
178,856.8327081608569,857.1490098608572,856.8093771608568,0.8,0.0,,1.0,1.0,856.9091912400015,-0.0,0.0,0.25,0,1.0,0.0,-1,0.09981407914472129,0,ZFM-02600,0.108,0.656,0.866,0.844,0.686,0.44,82.0
179,861.8658048008618,862.2767303708623,861.8356744808618,0.8,0.0,,1.0,1.0,862.0641912400015,-0.0,0.0,0.25,0,1.0,0.0,-1,0.22851675913966574,0,ZFM-02600,0.097,0.6900000000000001,0.879,0.844,0.718,0.44,83.0
180,865.3155931208653,865.8509729108658,865.2972949508653,0.8,,1.0,1.0,-1.0,865.6651912400015,1.0,0.0,0.0,0,1.0,1.0,1,0.36789628913618344,0,ZFM-02600,0.088,0.621,0.891,0.844,0.646,0.44,84.0
181,868.7487164408687,869.1324114008692,868.7409505508688,0.8,1.0,,1.0,1.0,868.8571912400015,-1.0,0.0,0.0,0,1.0,0.0,-1,0.11624068913272367,0,ZFM-02600,0.079,0.559,0.902,0.844,0.581,0.44,85.0
182,872.9481297908729,873.4890423608736,872.941897080873,0.8,0.25,,1.0,1.0,873.2531912400016,-0.25,0.0,0.0,0,1.0,0.0,-1,0.31129415912857894,0,ZFM-02600,0.07100000000000001,0.603,0.912,0.844,0.623,0.44,86.0
183,876.4813764308765,877.2522993308772,876.4728772808764,0.8,0.0625,,1.0,1.0,877.0761912400015,-0.0625,0.0,0.0,0,1.0,0.0,-1,0.6033139591251029,0,ZFM-02600,0.064,0.643,0.921,0.844,0.661,0.44,87.0
184,880.1481763808802,881.055918930881,880.1398438808801,0.8,1.0,,1.0,1.0,879.9901912400015,-1.0,0.0,0.0,0,1.0,0.0,-1,-0.14965264087857122,0,ZFM-02600,0.058,0.679,0.929,0.844,0.6950000000000001,0.44,88.0
185,885.947563050886,886.3014943208863,885.927465060886,0.8,1.0,,1.0,1.0,886.0761912400015,-1.0,0.0,0.0,0,1.0,0.0,-1,0.14872617911555608,0,ZFM-02600,0.052000000000000005,0.711,0.936,0.844,0.725,0.44,89.0
186,889.3306247108893,889.8295081508899,889.3287915608894,0.8,,0.0625,1.0,-1.0,889.6611912400016,0.0625,0.0,0.0,0,1.0,1.0,1,0.3323996791121999,0,ZFM-02600,0.047,0.64,0.9420000000000001,0.844,0.653,0.44,90.0
187,894.4805430008945,895.3857191408954,894.4807429808944,0.8,0.0,,-1.0,-1.0,894.8421912400015,-0.0,0.0,0.25,0,0.0,1.0,-1,0.36144825910707823,0,ZFM-02600,0.14200000000000002,0.676,0.848,0.844,0.6880000000000001,0.44,91.0
188,901.7964113409018,902.2541322309023,901.7890120809018,0.8,0.25,,1.0,1.0,902.0721912400015,-0.25,0.0,0.0,0,1.0,0.0,-1,0.28317915909974545,0,ZFM-02600,0.128,0.608,0.848,0.86,0.6880000000000001,0.498,92.0
189,905.7630813009058,906.3022940409063,905.7599816109058,0.8,0.0,,1.0,1.0,906.0441912400015,-0.0,0.0,0.25,0,1.0,0.0,-1,0.2842096290956988,0,ZFM-02600,0.115,0.647,0.863,0.86,0.719,0.498,93.0
190,912.929397930913,913.5052403409135,912.9229319109129,0.8,0.125,,1.0,1.0,913.2581912400016,-0.125,0.0,0.0,0,1.0,0.0,-1,0.3352593290886716,0,ZFM-02600,0.10300000000000001,0.683,0.877,0.86,0.747,0.498,94.0
191,918.3124595709183,919.2292012209192,918.2911950309183,0.8,0.125,,-1.0,-1.0,918.5191912400015,-0.125,0.0,0.0,0,0.0,1.0,-1,0.22799620908324414,0,ZFM-02600,0.193,0.614,0.789,0.86,0.672,0.498,95.0
192,924.4786095609245,924.979759440925,924.4528454709244,0.8,0.0,,1.0,1.0,924.6711912400016,-0.0,1.0,0.75,0,1.0,0.0,-1,0.218345769077132,0,ZFM-02600,0.17400000000000002,0.553,0.789,0.874,0.672,0.55,0.0
193,928.0620845109281,928.3967843709285,928.055851800928,0.8,0.0,,-1.0,-1.0,927.9501912400016,-0.0,1.0,0.75,0,0.0,1.0,-1,-0.10566056092648068,0,ZFM-02600,0.256,0.498,0.71,0.874,0.605,0.55,1.0
194,934.4279478609344,934.7877785409348,934.4154157809344,0.8,0.125,,1.0,1.0,934.4851912400015,-0.125,1.0,1.0,0,1.0,0.0,-1,0.06977545906715932,0,ZFM-02600,0.231,0.448,0.71,0.887,0.605,0.596,2.0
195,938.3947511409384,938.7870452409388,938.3623877109384,0.2,,0.0,-1.0,1.0,938.3841912400015,0.0,1.0,0.75,0,0.0,0.0,1,0.021803529063163296,0,ZFM-02600,0.308,0.503,0.639,0.887,0.645,0.596,3.0
196,943.1775394809432,943.7071531809437,943.1606745009432,0.2,,0.25,1.0,-1.0,943.5161912400016,0.25,1.0,1.0,0,1.0,1.0,1,0.3555167390584302,0,ZFM-02600,0.277,0.453,0.639,0.899,0.645,0.637,4.0
197,946.7772128109468,947.2624976109473,946.7466492009468,0.2,,0.25,1.0,-1.0,947.0951912400016,0.25,1.0,1.0,0,1.0,1.0,1,0.34854203905479153,0,ZFM-02600,0.249,0.507,0.675,0.899,0.68,0.637,5.0
198,950.6104627809506,952.2172354209522,950.5942977309506,0.2,,0.0625,1.0,-1.0,951.9891912400016,0.0625,1.0,1.0,0,1.0,1.0,1,1.3948935090509167,0,ZFM-02600,0.224,0.557,0.708,0.899,0.712,0.637,6.0
199,955.2936610809553,957.2241680109572,955.2799291209553,0.2,,0.0,1.0,-1.0,956.9671912400016,0.0,1.0,0.75,1,1.0,1.0,1,1.687262119046295,0,ZFM-02600,0.202,0.601,0.737,0.899,0.741,0.637,7.0
200,960.1934043909602,961.4178819309615,960.1798724109602,0.2,,0.0,-1.0,1.0,960.3521912400016,0.0,1.0,0.75,0,0.0,0.0,1,0.1723188290413873,0,ZFM-02600,0.28200000000000003,0.541,0.663,0.899,0.667,0.637,8.0
201,965.5595677209656,965.940562950966,965.5311705609655,0.2,,0.25,1.0,-1.0,965.7421912400016,0.25,1.0,1.0,0,1.0,1.0,1,0.21102067903609623,0,ZFM-02600,0.254,0.487,0.663,0.909,0.667,0.674,9.0
202,972.3593876709724,972.7222513809727,972.3451224309723,0.2,,0.25,1.0,-1.0,972.5401912400016,0.25,1.0,1.0,0,1.0,1.0,1,0.19506880902929424,0,ZFM-02600,0.228,0.538,0.6970000000000001,0.909,0.7000000000000001,0.674,10.0
203,975.8258076609758,976.4820753609765,975.8054430309758,0.2,,0.0625,1.0,-1.0,976.2991912400016,0.0625,1.0,1.0,0,1.0,1.0,1,0.4937482090258527,0,ZFM-02600,0.20500000000000002,0.584,0.727,0.909,0.73,0.674,11.0
204,980.3422893009804,981.032386950981,980.3297238909803,0.2,,0.0625,-1.0,1.0,980.4481912400016,0.0625,1.0,1.0,0,0.0,0.0,1,0.11846734902132994,0,ZFM-02600,0.28500000000000003,0.526,0.655,0.909,0.657,0.674,12.0
205,986.0753159409861,986.7301837809867,986.057017770986,0.2,,0.0,1.0,-1.0,986.5041912400017,0.0,1.0,0.75,0,1.0,1.0,1,0.44717346901563815,0,ZFM-02600,0.256,0.47300000000000003,0.655,0.918,0.657,0.707,13.0
206,990.6916209309907,992.1292438209921,990.6686565609907,0.2,,1.0,1.0,-1.0,990.9781912400016,1.0,1.0,1.0,0,1.0,1.0,1,0.3095346790108806,0,ZFM-02600,0.231,0.526,0.6890000000000001,0.918,0.6910000000000001,0.707,14.0
207,998.2245675609983,998.7634803309987,998.2232676909982,0.2,,0.0625,1.0,-1.0,998.4991912400017,0.0625,1.0,1.0,0,1.0,1.0,1,0.2759235490034371,0,ZFM-02600,0.20800000000000002,0.5730000000000001,0.72,0.918,0.722,0.707,15.0
208,1007.2407325210072,1007.5782987610075,1007.2358663410073,0.2,1.0,,1.0,1.0,1007.3801912400016,-1.0,1.0,1.0,0,1.0,0.0,-1,0.1443248989943413,0,ZFM-02600,0.187,0.516,0.748,0.918,0.65,0.707,16.0
209,1010.6739225010107,1012.0085223610121,1010.6521580110107,0.2,,0.0625,1.0,-1.0,1011.7521912400016,0.0625,1.0,1.0,0,1.0,1.0,1,1.1000332289909238,0,ZFM-02600,0.168,0.464,0.773,0.918,0.585,0.707,17.0
210,1016.1902374810162,1016.5779653710166,1016.1857712610162,0.2,,0.25,1.0,-1.0,1016.3241912400016,0.25,1.0,1.0,0,1.0,1.0,1,0.13841997898543923,0,ZFM-02600,0.151,0.518,0.796,0.918,0.627,0.707,18.0
211,1021.6065624610217,1021.9739257210219,1021.5930638110216,0.2,,0.125,1.0,-1.0,1021.6901912400017,0.125,1.0,1.0,0,1.0,1.0,1,0.09712742898011584,0,ZFM-02600,0.136,0.5660000000000001,0.8160000000000001,0.918,0.664,0.707,19.0
212,1024.955860831025,1025.6663564410258,1024.943695381025,0.2,0.25,,-1.0,-1.0,1025.3411912400018,-0.25,1.0,1.0,0,0.0,1.0,-1,0.3974958589767539,0,ZFM-02600,0.223,0.61,0.735,0.918,0.6970000000000001,0.707,20.0
213,1029.7727124310297,1030.1353095010302,1029.7690128010297,0.2,,0.0,1.0,-1.0,1029.9381912400017,0.0,1.0,0.75,0,1.0,1.0,1,0.16917843897203966,0,ZFM-02600,0.2,0.649,0.735,0.927,0.6970000000000001,0.635,21.0
214,1033.089080761033,1033.4182478410335,1033.0763153710332,0.2,,0.0,1.0,-1.0,1033.0551912400017,0.0,1.0,0.75,0,1.0,1.0,1,-0.021124131031456272,0,ZFM-02600,0.18,0.684,0.761,0.927,0.728,0.635,22.0
215,1036.8387724210368,1037.3663863210375,1036.8319397710368,0.2,,0.125,1.0,-1.0,1036.970191240002,0.125,1.0,1.0,0,1.0,1.0,1,0.13825146896510887,0,ZFM-02600,0.162,0.715,0.785,0.927,0.755,0.635,23.0
216,1043.4720090310434,1043.876235271044,1043.4692093110434,0.2,,1.0,1.0,-1.0,1043.5211912400018,1.0,1.0,1.0,0,1.0,1.0,1,0.05198192895841203,0,ZFM-02600,0.146,0.744,0.807,0.927,0.779,0.635,24.0
217,1050.00465570105,1050.3231238510502,1049.99848965105,0.2,,0.25,1.0,-1.0,1050.1311912400017,0.25,1.0,1.0,0,1.0,1.0,1,0.13270158895170425,0,ZFM-02600,0.131,0.769,0.8260000000000001,0.927,0.802,0.635,25.0
218,1053.921297331054,1054.2765618010542,1053.907132081054,0.2,,1.0,1.0,-1.0,1054.0871912400019,1.0,1.0,1.0,0,1.0,1.0,1,0.18005915894786995,0,ZFM-02600,0.11800000000000001,0.793,0.843,0.927,0.8210000000000001,0.635,26.0
219,1058.3378889610583,1058.7190841710587,1058.3241570010584,0.2,,1.0,1.0,-1.0,1058.4741912400018,1.0,1.0,1.0,0,1.0,1.0,1,0.15003423894336265,0,ZFM-02600,0.106,0.8130000000000001,0.859,0.927,0.839,0.635,27.0
220,1062.6372589810626,1063.047617941063,1062.6307263010626,0.2,,0.125,1.0,-1.0,1062.874191240002,0.125,1.0,1.0,0,1.0,1.0,1,0.2434649389392689,0,ZFM-02600,0.096,0.8320000000000001,0.873,0.927,0.855,0.635,28.0
221,1067.120443951067,1067.4365790010675,1067.114044591067,0.2,,0.0,1.0,-1.0,1067.2371912400017,0.0,1.0,0.75,0,1.0,1.0,1,0.12314664893460758,0,ZFM-02600,0.08600000000000001,0.849,0.886,0.927,0.87,0.635,29.0
222,1072.2869272510723,1072.6881204610727,1072.2749951110723,0.2,,0.25,1.0,-1.0,1072.4351912400018,0.25,1.0,1.0,0,1.0,1.0,1,0.16019612892955593,0,ZFM-02600,0.078,0.864,0.897,0.927,0.883,0.635,30.0
223,1076.1199772410762,1076.6860539610766,1076.114611111076,0.2,,0.0,1.0,-1.0,1076.4931912400018,0.0,1.0,0.75,0,1.0,1.0,1,0.37858012892570514,0,ZFM-02600,0.07,0.877,0.908,0.927,0.895,0.635,31.0
224,1081.869635551082,1082.2486309810822,1081.864236091082,0.2,,0.0625,1.0,-1.0,1082.0491912400018,0.0625,1.0,1.0,0,1.0,1.0,1,0.1849551489199257,0,ZFM-02600,0.063,0.89,0.917,0.927,0.905,0.635,32.0
225,1085.7860105410857,1086.161073031086,1085.7655459210857,0.2,0.25,,1.0,1.0,1085.8961912400018,-0.25,1.0,1.0,0,1.0,0.0,-1,0.13064531891609477,0,ZFM-02600,0.057,0.801,0.925,0.927,0.8150000000000001,0.635,33.0
226,1089.6857205310896,1090.07111532109,1089.6695221510897,0.2,,1.0,1.0,-1.0,1089.8271912400019,1.0,1.0,1.0,0,1.0,1.0,1,0.1576690889121437,0,ZFM-02600,0.051000000000000004,0.721,0.933,0.927,0.733,0.635,34.0
227,1093.4692421410934,1093.9575266410939,1093.4648092510936,0.2,0.125,,1.0,1.0,1093.6371912400018,-0.125,1.0,1.0,0,1.0,0.0,-1,0.17238198890822787,0,ZFM-02600,0.046,0.649,0.9390000000000001,0.927,0.66,0.635,35.0
228,1100.3186904611002,1100.6577232211007,1100.3137576211004,0.2,,0.125,1.0,-1.0,1100.3991912400018,0.125,1.0,1.0,0,1.0,1.0,1,0.08543361890133383,0,ZFM-02600,0.041,0.584,0.9450000000000001,0.927,0.594,0.635,36.0
229,1106.5516004411065,1106.978557741107,1106.5357020311064,0.2,,0.25,1.0,-1.0,1106.6291912400018,0.25,1.0,1.0,0,1.0,1.0,1,0.09348920889533474,0,ZFM-02600,0.037,0.625,0.9510000000000001,0.927,0.634,0.635,37.0
230,1110.01835373111,1110.3240898211104,1109.99902233111,0.2,,0.25,1.0,-1.0,1109.9631912400018,0.25,1.0,1.0,0,1.0,1.0,1,-0.03583109110809346,0,ZFM-02600,0.033,0.663,0.9560000000000001,0.927,0.671,0.635,38.0
231,1116.1677387311163,1116.4904731211166,1116.1413080411162,0.2,,1.0,1.0,-1.0,1116.181191240002,1.0,1.0,1.0,0,1.0,1.0,1,0.03988319888571823,0,ZFM-02600,0.03,0.6970000000000001,0.96,0.927,0.704,0.635,39.0
232,1119.6006287411196,1120.7138174111208,1119.5859302111196,0.2,1.0,,1.0,1.0,1120.239191240002,-1.0,1.0,1.0,0,1.0,0.0,-1,0.653261028882298,0,ZFM-02600,0.027,0.627,0.964,0.927,0.633,0.635,40.0
233,1124.2841270111244,1125.3208566611254,1124.2552299011243,0.2,,0.0,1.0,-1.0,1124.6071912400018,0.0,1.0,0.75,0,1.0,1.0,1,0.3519613388775724,0,ZFM-02600,0.024,0.5640000000000001,0.968,0.927,0.5700000000000001,0.635,41.0
234,1128.4000153811285,1128.6019951811286,1128.3742179611284,0.2,,0.25,1.0,-1.0,1128.2831912400018,0.25,1.0,1.0,0,1.0,1.0,1,-0.09102672112658183,0,ZFM-02600,0.022,0.608,0.971,0.927,0.613,0.635,42.0
235,1131.7503136511318,1132.2962257211323,1131.7181835311317,0.2,,0.25,1.0,-1.0,1131.9141912400019,0.25,1.0,1.0,0,1.0,1.0,1,0.1960077088701837,0,ZFM-02600,0.02,0.647,0.974,0.927,0.652,0.635,43.0
236,1139.4329119811393,1139.8888997111399,1139.4204465611394,0.2,1.0,,1.0,1.0,1139.6671912400018,-1.0,1.0,1.0,0,1.0,0.0,-1,0.24674467886234197,0,ZFM-02600,0.018000000000000002,0.582,0.976,0.927,0.587,0.635,44.0
237,1143.0660153011431,1143.7308488111437,1143.031418761143,0.2,,0.125,1.0,-1.0,1143.460191240002,0.125,1.0,1.0,0,1.0,1.0,1,0.42877247885894576,0,ZFM-02600,0.016,0.524,0.979,0.927,0.528,0.635,45.0
238,1147.099411921147,1147.4829735611474,1147.095712291147,0.2,,0.0,1.0,-1.0,1147.2531912400018,0.0,1.0,0.75,0,1.0,1.0,1,0.15747894885475944,0,ZFM-02600,0.014,0.5720000000000001,0.981,0.927,0.5750000000000001,0.635,46.0
239,1150.4325119111504,1151.1279090311511,1150.4263458611504,0.2,,0.0,1.0,-1.0,1150.958191240002,0.0,1.0,0.75,1,1.0,1.0,1,0.5318453788515853,0,ZFM-02600,0.013000000000000001,0.615,0.983,0.927,0.618,0.635,47.0
240,1154.2153669211543,1155.963958711156,1154.1980019911541,0.2,,0.0625,1.0,-1.0,1155.7891912400019,0.0625,1.0,1.0,0,1.0,1.0,1,1.5911892488477406,0,ZFM-02600,0.012,0.653,0.985,0.927,0.656,0.635,48.0
241,1161.0983785511612,1161.7992751211618,1161.0712812611612,0.2,0.0,,-1.0,-1.0,1161.576191240002,-0.0,1.0,0.75,1,0.0,1.0,-1,0.5049099788407148,0,ZFM-02600,0.11,0.6880000000000001,0.886,0.927,0.6900000000000001,0.635,49.0
242,1165.931395201166,1166.2725610811663,1165.9278955511659,0.2,,0.125,1.0,-1.0,1166.0511912400018,0.125,1.0,1.0,0,1.0,1.0,1,0.12329568883592401,0,ZFM-02600,0.099,0.719,0.886,0.934,0.6900000000000001,0.5710000000000001,50.0
243,1172.931195151173,1173.2520297311733,1172.9228626511729,0.2,,1.0,1.0,-1.0,1173.013191240002,1.0,1.0,1.0,0,1.0,1.0,1,0.09032858882915207,0,ZFM-02600,0.089,0.747,0.898,0.934,0.721,0.5710000000000001,51.0
244,1176.7308151511768,1177.2738608411773,1176.7091506511767,0.2,,0.125,1.0,-1.0,1176.8091912400018,0.125,1.0,1.0,0,1.0,1.0,1,0.10004058882509526,0,ZFM-02600,0.081,0.772,0.908,0.934,0.749,0.5710000000000001,52.0
245,1180.4973384611806,1181.1585056711813,1180.4661082511805,0.2,0.125,,1.0,1.0,1180.6151912400019,-0.125,1.0,1.0,0,1.0,0.0,-1,0.14908298882141935,0,ZFM-02600,0.07200000000000001,0.6950000000000001,0.917,0.934,0.674,0.5710000000000001,53.0
246,1184.3971151111843,1184.991089041185,1184.3867494811843,0.2,,0.0625,-1.0,1.0,1184.7691912400019,0.0625,1.0,1.0,0,0.0,0.0,1,0.38244175881754927,0,ZFM-02600,0.165,0.726,0.8250000000000001,0.934,0.707,0.5710000000000001,54.0
247,1190.09674509119,1190.3860494911903,1190.09037906119,0.2,0.125,,-1.0,-1.0,1190.082191240002,-0.125,1.0,1.0,0,0.0,1.0,-1,-0.008187821188130329,0,ZFM-02600,0.249,0.653,0.8250000000000001,0.839,0.707,0.614,55.0
248,1196.2965583811963,1196.7308482811968,1196.2833263711964,0.2,0.25,,1.0,1.0,1196.470191240002,-0.25,1.0,1.0,0,1.0,0.0,-1,0.18686486880551456,0,ZFM-02600,0.224,0.588,0.8250000000000001,0.856,0.707,0.653,56.0
249,1199.9295283812,1200.4539092712005,1199.9252954712,0.8,0.0625,,1.0,1.0,1200.255191240002,-0.0625,1.0,1.0,0,1.0,0.0,-1,0.32989576880208915,0,ZFM-02600,0.201,0.629,0.843,0.856,0.736,0.653,57.0
250,1203.4795400112034,1204.7885424312049,1203.4769402712036,0.8,,0.0625,1.0,-1.0,1204.601191240002,0.0625,1.0,1.0,0,1.0,1.0,1,1.1242509687983784,0,ZFM-02600,0.181,0.5660000000000001,0.858,0.856,0.663,0.653,58.0
251,1211.6455566612117,1211.927895091212,1211.6365575612117,0.8,1.0,,-1.0,-1.0,1211.566191240002,-1.0,1.0,1.0,0,0.0,1.0,-1,-0.07036632120980357,0,ZFM-02600,0.263,0.609,0.773,0.856,0.6960000000000001,0.653,59.0
252,1218.1785033012181,1218.928828261219,1218.172170601218,0.8,0.0,,-1.0,-1.0,1218.744191240002,-0.0,1.0,0.75,0,0.0,1.0,-1,0.5720206387838971,0,ZFM-02600,0.337,0.649,0.773,0.769,0.6960000000000001,0.587,60.0
253,1223.0781466212231,1223.5315346112236,1223.0471497212231,0.8,,0.0625,1.0,-1.0,1223.256191240002,0.0625,1.0,1.0,0,1.0,1.0,1,0.20904151877880395,0,ZFM-02600,0.303,0.684,0.773,0.792,0.6960000000000001,0.528,61.0
254,1230.928061551231,1231.3399203612314,1230.903064051231,0.8,1.0,,1.0,1.0,1231.0961912400019,-1.0,1.0,1.0,0,1.0,0.0,-1,0.193127188770859,0,ZFM-02600,0.273,0.615,0.795,0.792,0.627,0.528,62.0
255,1234.6607549112346,1235.0841459012352,1234.6497560112346,0.8,1.0,,1.0,1.0,1234.9141912400019,-1.0,1.0,1.0,0,1.0,0.0,-1,0.2644352287672973,0,ZFM-02600,0.246,0.654,0.8160000000000001,0.792,0.664,0.528,63.0
256,1239.4107798612395,1240.00298730124,1239.3970145712394,0.8,0.0,,-1.0,-1.0,1239.4131912400019,-0.0,1.0,0.75,0,0.0,1.0,-1,0.016176668762454938,0,ZFM-02600,0.321,0.588,0.734,0.792,0.598,0.528,64.0
257,1244.8104065112448,1245.2367638712453,1244.7799762212449,0.8,,0.25,1.0,-1.0,1245.027191240002,0.25,1.0,1.0,0,1.0,1.0,1,0.24721501875706053,0,ZFM-02600,0.289,0.63,0.734,0.8130000000000001,0.598,0.47500000000000003,65.0
258,1248.3268215012483,1248.8059402512488,1248.2945913912483,0.8,0.0,,-1.0,-1.0,1248.371191240002,-0.0,1.0,0.75,0,0.0,1.0,-1,0.0765998487536308,0,ZFM-02600,0.36,0.667,0.661,0.8130000000000001,0.638,0.47500000000000003,66.0
259,1257.142839811257,1257.9412599612579,1257.116542441257,0.8,0.25,,1.0,1.0,1257.718191240002,-0.25,1.0,1.0,0,1.0,0.0,-1,0.6016487987449182,0,ZFM-02600,0.324,0.6,0.661,0.8320000000000001,0.638,0.528,67.0
260,1261.5261014412615,1261.954491931262,1261.5208353012615,0.8,,0.0625,-1.0,1.0,1261.624191240002,0.0625,1.0,1.0,0,0.0,0.0,1,0.1033559387403784,0,ZFM-02600,0.392,0.64,0.595,0.8320000000000001,0.674,0.528,68.0
261,1266.109143091266,1266.5218018212665,1266.102477091266,0.8,,0.125,-1.0,1.0,1266.088191240002,0.125,1.0,1.0,0,0.0,0.0,1,-0.014285851264048688,0,ZFM-02600,0.452,0.676,0.595,0.748,0.674,0.47500000000000003,69.0
262,1271.6589213912716,1272.4287444012725,1271.6410898412717,0.8,0.0,,-1.0,-1.0,1271.875191240002,-0.0,1.0,0.75,0,0.0,1.0,-1,0.234101398730445,0,ZFM-02600,0.507,0.608,0.595,0.673,0.674,0.527,70.0
263,1276.9420596912769,1277.3394532812774,1276.934727091277,0.8,0.125,,1.0,1.0,1277.010191240002,-0.125,1.0,1.0,0,1.0,0.0,-1,0.07546414872513196,0,ZFM-02600,0.456,0.548,0.595,0.706,0.674,0.5750000000000001,71.0
264,1282.2915246912823,1282.6276244112826,1282.2726599112823,0.8,0.125,,1.0,1.0,1282.363191240002,-0.125,1.0,1.0,0,1.0,0.0,-1,0.09053132871963498,0,ZFM-02600,0.41100000000000003,0.593,0.635,0.706,0.707,0.5750000000000001,72.0
265,1286.1579713412862,1286.4509420412865,1286.1393065412863,0.8,1.0,,1.0,1.0,1286.258191240002,-1.0,1.0,1.0,0,1.0,0.0,-1,0.11888469871564666,0,ZFM-02600,0.37,0.633,0.672,0.706,0.736,0.5750000000000001,73.0
266,1289.4579079812895,1289.7508786812898,1289.4336104112895,0.8,1.0,,1.0,1.0,1289.566191240002,-1.0,1.0,1.0,0,1.0,0.0,-1,0.1325808287124346,0,ZFM-02600,0.333,0.67,0.705,0.706,0.762,0.5750000000000001,74.0
267,1292.957624641293,1293.3061231212932,1292.951591911293,0.8,1.0,,1.0,1.0,1293.009191240002,-1.0,1.0,1.0,0,1.0,0.0,-1,0.05759932870910234,0,ZFM-02600,0.3,0.7030000000000001,0.734,0.706,0.786,0.5750000000000001,75.0
268,1297.973756311298,1298.2753928112984,1297.945559131298,0.8,0.25,,1.0,1.0,1298.051191240002,-0.25,1.0,1.0,0,1.0,0.0,-1,0.10563210870395778,0,ZFM-02600,0.27,0.733,0.761,0.706,0.808,0.5750000000000001,76.0
269,1303.4236446013035,1304.3193216913044,1303.3888480813034,0.8,,0.0625,1.0,-1.0,1304.032191240002,0.0625,1.0,1.0,0,1.0,1.0,1,0.6433431586985989,0,ZFM-02600,0.243,0.66,0.785,0.706,0.727,0.5750000000000001,77.0
270,1314.3228879013143,1316.071246381316,1314.3074227813142,0.8,,0.25,1.0,-1.0,1315.871191240002,0.25,1.0,1.0,0,1.0,1.0,1,1.5637684586877185,0,ZFM-02600,0.218,0.6940000000000001,0.806,0.706,0.754,0.5750000000000001,78.0
271,1319.2393628713191,1319.88649815132,1319.2153986013193,0.8,1.0,,1.0,1.0,1319.667191240002,-1.0,1.0,1.0,0,1.0,0.0,-1,0.45179263868271846,0,ZFM-02600,0.197,0.624,0.8260000000000001,0.706,0.679,0.5750000000000001,79.0
272,1323.072446191323,1323.3867147613234,1323.052014901323,0.8,0.25,,1.0,1.0,1323.0751912400021,-0.25,1.0,1.0,0,1.0,0.0,-1,0.02317633867914992,0,ZFM-02600,0.177,0.662,0.843,0.706,0.711,0.5750000000000001,80.0
273,1328.2721928313283,1328.4923708113286,1328.2703263513283,0.8,0.25,,1.0,1.0,1328.108191240002,-0.25,1.0,1.0,0,1.0,0.0,-1,-0.162135111326279,0,ZFM-02600,0.159,0.6960000000000001,0.859,0.706,0.74,0.5750000000000001,81.0
274,1336.3885477813365,1336.6797519913366,1336.3552511113364,0.8,0.0,,1.0,1.0,1336.386191240002,-0.0,1.0,0.75,0,1.0,0.0,-1,0.030940128665633893,0,ZFM-02600,0.14300000000000002,0.726,0.873,0.706,0.766,0.5750000000000001,82.0
275,1344.904562761345,1345.4737391713454,1344.894197131345,0.8,0.0,,1.0,1.0,1345.1031912400022,-0.0,1.0,0.75,1,1.0,0.0,-1,0.20899410865717982,0,ZFM-02600,0.129,0.753,0.886,0.706,0.789,0.5750000000000001,83.0
276,1349.1874011013492,1349.6598205213497,1349.1528378913492,0.8,,0.0,-1.0,1.0,1349.3731912400021,0.0,1.0,0.75,0,0.0,0.0,1,0.2203533486529068,0,ZFM-02600,0.216,0.778,0.797,0.706,0.81,0.5750000000000001,84.0
277,1355.8207043713558,1356.3240873613563,1355.8087722313558,0.8,,0.0,-1.0,1.0,1356.073191240002,0.0,1.0,0.75,1,0.0,0.0,1,0.2644190086462004,0,ZFM-02600,0.294,0.8,0.797,0.635,0.81,0.517,85.0
278,1361.6704526713618,1362.2507279713623,1361.6610536113617,0.8,,0.0625,1.0,-1.0,1362.057191240002,0.0625,1.0,1.0,0,1.0,1.0,1,0.39613762864041746,0,ZFM-02600,0.265,0.72,0.797,0.672,0.81,0.5660000000000001,86.0
279,1369.3865143213693,1369.7868076213697,1369.3543508713694,0.8,0.125,,1.0,1.0,1369.572191240002,-0.125,1.0,1.0,0,1.0,0.0,-1,0.21784036863255096,0,ZFM-02600,0.23800000000000002,0.648,0.8170000000000001,0.672,0.729,0.5660000000000001,87.0
280,1373.2029659713733,1373.8253370613738,1373.1809681713733,0.8,1.0,,1.0,1.0,1373.543191240002,-1.0,1.0,1.0,0,1.0,0.0,-1,0.36222306862873666,0,ZFM-02600,0.215,0.683,0.836,0.672,0.756,0.5660000000000001,88.0
281,1381.4356759513814,1382.0720123113822,1381.4305764613814,0.8,0.0,,1.0,1.0,1381.771191240002,-0.0,1.0,0.75,0,1.0,0.0,-1,0.3406147786206475,0,ZFM-02600,0.193,0.715,0.852,0.672,0.781,0.5660000000000001,89.0
282,1385.3357525713855,1386.041848621386,1385.3052222913852,0.8,0.25,,1.0,1.0,1385.3151912400022,-0.25,1.0,1.0,0,1.0,0.0,-1,0.00996894861691544,0,ZFM-02600,0.17400000000000002,0.744,0.867,0.672,0.803,0.5660000000000001,90.0
283,1390.3353192313903,1390.7849076013908,1390.3281866113903,0.8,0.0625,,1.0,1.0,1390.561191240002,-0.0625,1.0,1.0,0,1.0,0.0,-1,0.2330046286117522,0,ZFM-02600,0.156,0.769,0.88,0.672,0.8220000000000001,0.5660000000000001,91.0
284,1396.5017358613966,1397.048781151397,1396.4735053513964,0.8,0.125,,1.0,1.0,1396.562191240002,-0.125,1.0,1.0,0,1.0,0.0,-1,0.08868588860559612,0,ZFM-02600,0.14100000000000001,0.792,0.892,0.672,0.84,0.5660000000000001,92.0
285,1400.851300861401,1401.2259967214013,1400.829136411401,0.8,0.25,,1.0,1.0,1400.9491912400022,-0.25,1.0,1.0,0,1.0,0.0,-1,0.12005482860126904,0,ZFM-02600,0.127,0.8130000000000001,0.903,0.672,0.856,0.5660000000000001,93.0
286,1408.934092501409,1409.4488743514094,1408.9090616714088,0.8,0.0,,1.0,1.0,1409.088191240002,-0.0,1.0,0.75,0,1.0,0.0,-1,0.17912956859322549,0,ZFM-02600,0.114,0.8320000000000001,0.913,0.672,0.87,0.5660000000000001,94.0
287,1414.2839574614143,1414.7489442914148,1414.2720253214143,0.8,0.0625,,1.0,1.0,1414.5071912400022,-0.0625,1.0,1.0,0,1.0,0.0,-1,0.2351659185878816,0,ZFM-02600,0.10300000000000001,0.849,0.921,0.672,0.883,0.5660000000000001,95.0
288,1417.8670324514178,1419.006885121419,1417.8493342214178,0.8,,0.0,1.0,-1.0,1417.9861912400022,0.0,0.0,0.25,0,1.0,1.0,1,0.13685701858435095,0,ZFM-02600,0.092,0.764,0.929,0.672,0.795,0.5660000000000001,0.0
289,1425.099809101425,1425.4909366514255,1425.0879436214252,0.8,0.0625,,1.0,1.0,1425.280191240002,-0.0625,0.0,0.0,0,1.0,0.0,-1,0.19224761857685735,0,ZFM-02600,0.083,0.687,0.936,0.672,0.716,0.5660000000000001,1.0
290,1428.5998590614286,1428.8347689014288,1428.5752615214285,0.8,0.0625,,1.0,1.0,1428.5741912400022,-0.0625,0.0,0.0,0,1.0,0.0,-1,-0.0010702814263368055,0,ZFM-02600,0.075,0.719,0.9430000000000001,0.672,0.744,0.5660000000000001,2.0
291,1431.999419071432,1432.3002223214323,1431.977554591432,0.8,0.125,,1.0,1.0,1432.108191240002,-0.125,0.0,0.0,0,1.0,0.0,-1,0.13063664857008916,0,ZFM-02600,0.067,0.747,0.9480000000000001,0.672,0.77,0.5660000000000001,3.0
292,1439.6657523614397,1439.90882805144,1439.6518537514396,0.8,0.0625,,-1.0,-1.0,1439.6781912400022,-0.0625,0.0,0.0,0,0.0,1.0,-1,0.02633748856260354,0,ZFM-02600,0.161,0.672,0.854,0.672,0.6930000000000001,0.5660000000000001,4.0
293,1444.2323289914443,1444.7156473214447,1444.2078647714443,0.8,0.25,,1.0,1.0,1444.406191240002,-0.25,0.0,0.0,0,1.0,0.0,-1,0.19832646855775238,0,ZFM-02600,0.145,0.605,0.854,0.705,0.6930000000000001,0.609,5.0
294,1450.6151239814506,1450.954690021451,1450.5850936514505,0.8,1.0,,1.0,1.0,1450.741191240002,-1.0,0.0,0.0,0,1.0,0.0,-1,0.15609758855157452,0,ZFM-02600,0.13,0.644,0.868,0.705,0.723,0.609,6.0
295,1456.4316756014564,1456.7822738714567,1456.3953792314564,0.8,,1.0,1.0,-1.0,1456.5901912400022,1.0,0.0,0.0,0,1.0,1.0,1,0.19481200854579583,0,ZFM-02600,0.117,0.58,0.881,0.705,0.651,0.609,7.0
296,1459.94809059146,1460.5025018114604,1459.92069333146,0.8,0.125,,1.0,1.0,1460.2531912400023,-0.125,0.0,0.0,0,1.0,0.0,-1,0.3324979085423365,0,ZFM-02600,0.105,0.522,0.893,0.705,0.586,0.609,8.0
297,1466.3141539214664,1466.6893497314668,1466.2863233714663,0.8,0.125,,1.0,1.0,1466.3991912400022,-0.125,0.0,0.0,0,1.0,0.0,-1,0.11286786853588637,0,ZFM-02600,0.095,0.5700000000000001,0.904,0.705,0.627,0.609,9.0
298,1469.99725224147,1470.5919927614707,1469.99061957147,0.8,1.0,,1.0,1.0,1470.366191240002,-1.0,0.0,0.0,0,1.0,0.0,-1,0.3755716685320749,0,ZFM-02600,0.085,0.613,0.914,0.705,0.665,0.609,10.0
299,1473.6138572114737,1473.932125381474,1473.6082577714735,0.8,1.0,,1.0,1.0,1473.5561912400021,-1.0,0.0,0.0,0,1.0,0.0,-1,-0.052066531471382405,0,ZFM-02600,0.077,0.652,0.922,0.705,0.6980000000000001,0.609,11.0
300,1477.1302055414772,1477.885063381478,1477.126239271477,0.8,0.0625,,1.0,1.0,1477.5031912400023,-0.0625,0.0,0.0,0,1.0,0.0,-1,0.37695196852519075,0,ZFM-02600,0.069,0.686,0.93,0.705,0.728,0.609,12.0
301,1483.979887171484,1484.3722479314845,1483.959189241484,0.8,0.125,,1.0,1.0,1484.1791912400022,-0.125,0.0,0.0,0,1.0,0.0,-1,0.220001998518228,0,ZFM-02600,0.062,0.718,0.937,0.705,0.756,0.609,13.0
302,1490.5458638414905,1491.0944089814911,1490.5184665814904,0.8,0.0625,,1.0,1.0,1490.8101912400023,-0.0625,0.0,0.0,0,1.0,0.0,-1,0.29172465851183915,0,ZFM-02600,0.056,0.746,0.9430000000000001,0.705,0.78,0.609,14.0
303,1494.2959221314943,1497.2150635214973,1494.2857564814942,0.8,0.0,,1.0,1.0,1496.9491912400022,-0.0,0.0,0.25,0,1.0,0.0,-1,2.6634347585079468,0,ZFM-02600,0.05,0.771,0.9490000000000001,0.705,0.802,0.609,15.0
304,1501.4121104415015,1502.1482034915023,1501.4010448815013,0.8,1.0,,1.0,1.0,1501.5501912400023,-1.0,0.0,0.0,0,1.0,0.0,-1,0.14914635850095692,0,ZFM-02600,0.045,0.794,0.9540000000000001,0.705,0.8220000000000001,0.609,16.0
305,1505.2453604115053,1505.6936489115058,1505.2366612815053,0.8,0.0625,,1.0,1.0,1505.3761912400023,-0.0625,0.0,0.0,0,1.0,0.0,-1,0.1395299584969507,0,ZFM-02600,0.041,0.8150000000000001,0.9590000000000001,0.705,0.84,0.609,17.0
306,1510.7282120715108,1511.1939988215113,1510.6919823615108,0.8,0.0625,,1.0,1.0,1510.5901912400022,-0.0625,0.0,0.0,0,1.0,0.0,-1,-0.10179112150854053,0,ZFM-02600,0.037,0.833,0.963,0.705,0.856,0.609,18.0
307,1514.5115337015145,1515.1470368115151,1514.4762705615144,0.8,,0.125,1.0,-1.0,1514.9291912400022,0.125,0.0,0.0,0,1.0,1.0,1,0.4529206784877715,0,ZFM-02600,0.033,0.75,0.966,0.705,0.77,0.609,19.0
308,1524.061011991524,1524.4410406515244,1524.0295151415241,0.8,0.125,,1.0,1.0,1524.1601912400022,-0.125,0.0,0.0,0,1.0,0.0,-1,0.13067609847803396,0,ZFM-02600,0.03,0.675,0.97,0.705,0.6930000000000001,0.609,20.0
309,1528.027448641528,1528.8008046315288,1528.014149971528,0.8,0.0,,-1.0,-1.0,1528.4731912400023,-0.0,0.0,0.25,0,0.0,1.0,-1,0.45904126847426596,0,ZFM-02600,0.127,0.607,0.873,0.705,0.624,0.609,21.0
310,1533.1271719515332,1533.4914355215335,1533.103107691533,0.8,0.125,,-1.0,-1.0,1533.2781912400021,-0.125,0.0,0.0,0,0.0,1.0,-1,0.17508354846904695,0,ZFM-02600,0.214,0.647,0.873,0.634,0.624,0.548,22.0
311,1538.976686941539,1539.102741001539,1538.942090401539,0.8,1.0,,-1.0,-1.0,1538.8681912400023,-1.0,0.0,0.0,0,0.0,1.0,-1,-0.07389916153670129,0,ZFM-02600,0.293,0.682,0.873,0.5700000000000001,0.624,0.493,23.0
312,1543.2764569215433,1543.6365209115436,1543.2540258315432,0.8,,1.0,1.0,-1.0,1543.4421912400023,1.0,0.0,0.0,0,1.0,1.0,1,0.18816540845909913,0,ZFM-02600,0.263,0.714,0.873,0.613,0.624,0.444,24.0
313,1546.7098135515466,1547.104374091547,1546.6886823315467,0.8,0.0,,1.0,1.0,1546.8241912400022,-0.0,0.0,0.25,1,1.0,0.0,-1,0.13550890845544927,0,ZFM-02600,0.23700000000000002,0.642,0.886,0.613,0.561,0.444,25.0
314,1554.1092735315542,1554.6020575815546,1554.0983079615542,0.8,0.0625,,1.0,1.0,1554.1431912400024,-0.0625,0.0,0.0,0,1.0,0.0,-1,0.044883278448196506,0,ZFM-02600,0.213,0.678,0.897,0.613,0.605,0.444,26.0
315,1557.8087702115579,1558.3855791915585,1557.7829394615578,0.8,0.0,,-1.0,-1.0,1558.1121912400022,-0.0,0.0,0.25,0,0.0,1.0,-1,0.32925177844435893,0,ZFM-02600,0.292,0.61,0.807,0.613,0.545,0.444,27.0
316,1562.5753601715626,1562.930524651563,1562.5658944515626,0.8,,0.25,1.0,-1.0,1562.7481912400021,0.25,0.0,0.0,0,1.0,1.0,1,0.1822967884395439,0,ZFM-02600,0.263,0.649,0.807,0.652,0.545,0.399,28.0
317,1568.2750901415684,1568.7237786015687,1568.2651911315684,0.8,1.0,,1.0,1.0,1568.4401912400022,-1.0,0.0,0.0,0,1.0,0.0,-1,0.17500010843377822,0,ZFM-02600,0.23700000000000002,0.584,0.8270000000000001,0.652,0.49,0.399,29.0
318,1572.0748101315721,1572.5905252215725,1572.064511161572,0.8,0.0625,,1.0,1.0,1572.3721912400022,-0.0625,0.0,0.0,0,1.0,0.0,-1,0.30768007843016676,0,ZFM-02600,0.213,0.626,0.844,0.652,0.541,0.399,30.0
319,1577.1912651015773,1577.5432632315776,1577.1681340815771,0.8,1.0,,1.0,1.0,1577.3391912400023,-1.0,0.0,0.0,0,1.0,0.0,-1,0.17105715842512836,0,ZFM-02600,0.192,0.663,0.86,0.652,0.587,0.399,31.0
320,1582.1578017315821,1582.4893352415825,1582.123771801582,0.8,1.0,,1.0,1.0,1582.2881912400023,-1.0,0.0,0.0,0,1.0,0.0,-1,0.16441943842028195,0,ZFM-02600,0.17200000000000001,0.6970000000000001,0.874,0.652,0.628,0.399,32.0
321,1586.6074567215867,1587.0801761115872,1586.5857255615865,0.8,0.0,,1.0,1.0,1586.7601912400023,-0.0,0.0,0.25,0,1.0,0.0,-1,0.17446567841579963,0,ZFM-02600,0.155,0.727,0.886,0.652,0.666,0.399,33.0
322,1590.3069200715904,1590.6340206915906,1590.2853555615902,0.8,0.25,,1.0,1.0,1590.2781912400023,-0.25,0.0,0.0,0,1.0,0.0,-1,-0.007164321587879385,0,ZFM-02600,0.14,0.755,0.898,0.652,0.6990000000000001,0.399,34.0
323,1593.8903950215938,1594.2318608715943,1593.8689971615938,0.8,,0.25,1.0,-1.0,1594.0191912400023,0.25,0.0,0.0,0,1.0,1.0,1,0.15019407840850363,0,ZFM-02600,0.126,0.679,0.908,0.652,0.629,0.399,35.0
324,1597.3901116815973,1597.905493471598,1597.3686471615974,0.8,1.0,,1.0,1.0,1597.6021912400022,-1.0,0.0,0.0,0,1.0,0.0,-1,0.23354407840474778,0,ZFM-02600,0.113,0.611,0.917,0.652,0.5660000000000001,0.399,36.0
325,1605.972853321606,1606.7754730516067,1605.968587081606,0.8,,0.0,1.0,-1.0,1606.5561912400024,0.0,0.0,0.25,1,1.0,1.0,1,0.5876041583962888,0,ZFM-02600,0.10200000000000001,0.55,0.925,0.652,0.51,0.399,37.0
326,1609.92255831161,1610.4848687416104,1609.90189371161,0.8,0.125,,-1.0,-1.0,1610.3071912400023,-0.125,0.0,0.0,0,0.0,1.0,-1,0.4052975283923388,0,ZFM-02600,0.192,0.595,0.833,0.652,0.559,0.399,38.0
327,1615.3555816216153,1615.6571514616157,1615.3291842616154,0.8,0.125,,-1.0,-1.0,1615.3441912400024,-0.125,0.0,0.0,0,0.0,1.0,-1,0.015006978386963965,0,ZFM-02600,0.272,0.636,0.833,0.587,0.559,0.359,39.0
328,1621.3052532616214,1621.7929378216218,1621.2974540416212,0.8,1.0,,1.0,1.0,1621.5291912400023,-1.0,0.0,0.0,0,1.0,0.0,-1,0.2317371983810972,0,ZFM-02600,0.245,0.5720000000000001,0.833,0.628,0.559,0.423,40.0
329,1625.021548261625,1625.5261644616255,1625.016415441625,0.2,0.0,,1.0,1.0,1625.1751912400023,-0.0,0.0,0.25,0,1.0,0.0,-1,0.15877579837729172,0,ZFM-02600,0.221,0.615,0.85,0.628,0.603,0.423,41.0
330,1628.7717065416289,1629.0964074016292,1628.7494087716289,0.2,,0.0,-1.0,1.0,1628.6931912400023,0.0,0.0,0.25,0,0.0,0.0,1,-0.05621753162654386,0,ZFM-02600,0.299,0.653,0.765,0.628,0.642,0.423,42.0
331,1635.6211881916356,1636.058177821636,1635.5860250416356,0.2,0.125,,1.0,1.0,1635.7421912400023,-0.125,0.0,0.0,0,1.0,0.0,-1,0.15616619836669088,0,ZFM-02600,0.269,0.6880000000000001,0.765,0.665,0.642,0.381,43.0
332,1642.170699841642,1642.7392429816427,1642.1616340816422,0.2,,0.125,1.0,-1.0,1642.5501912400023,0.125,0.0,0.0,0,1.0,1.0,1,0.3885571583600722,0,ZFM-02600,0.242,0.619,0.788,0.665,0.578,0.381,44.0
333,1646.020114861646,1646.4245744116465,1646.000250181646,0.2,0.25,,1.0,1.0,1646.1571912400022,-0.25,0.0,0.0,0,1.0,0.0,-1,0.156941058356324,0,ZFM-02600,0.218,0.557,0.809,0.665,0.52,0.381,45.0
334,1649.5203648016495,1650.4138087816505,1649.4919009816495,0.2,,0.125,1.0,-1.0,1649.5721912400024,0.125,0.0,0.0,0,1.0,1.0,1,0.08029025835298853,0,ZFM-02600,0.196,0.502,0.8280000000000001,0.665,0.468,0.381,46.0
335,1653.7368431116538,1654.1949639616541,1653.7062128416537,0.2,0.0625,,1.0,1.0,1653.9701912400024,-0.0625,0.0,0.0,0,1.0,0.0,-1,0.2639783983486268,0,ZFM-02600,0.176,0.451,0.846,0.665,0.422,0.381,47.0
336,1657.870063081658,1658.2588908616583,1657.8368330716578,0.2,,0.25,1.0,-1.0,1658.0731912400024,0.25,0.0,0.0,0,1.0,1.0,1,0.23635816834462275,0,ZFM-02600,0.159,0.406,0.861,0.665,0.379,0.381,48.0
337,1661.4529047616616,1661.6724828016618,1661.4418058716615,0.2,0.125,,-1.0,-1.0,1661.3801912400024,-0.125,0.0,0.0,0,0.0,1.0,-1,-0.06161463165904024,0,ZFM-02600,0.243,0.466,0.775,0.665,0.441,0.381,49.0
338,1665.7862047216659,1666.4044762216665,1665.7861047316658,0.2,,0.0,1.0,-1.0,1666.0581912400023,0.0,0.0,0.25,0,1.0,1.0,1,0.27208650833654247,0,ZFM-02600,0.219,0.519,0.775,0.6990000000000001,0.441,0.343,50.0
339,1669.6358863816697,1670.03711292167,1669.5990567316696,0.2,,1.0,1.0,-1.0,1669.7941912400024,1.0,0.0,0.0,0,1.0,1.0,1,0.19513450833278512,0,ZFM-02600,0.197,0.5670000000000001,0.797,0.6990000000000001,0.497,0.343,51.0
340,1673.2356930316732,1673.7224443516736,1673.2350264316733,0.2,,0.125,1.0,-1.0,1673.4231912400023,0.125,0.0,0.0,0,1.0,1.0,1,0.18816480832902016,0,ZFM-02600,0.177,0.61,0.8180000000000001,0.6990000000000001,0.548,0.343,52.0
341,1676.968953001677,1677.4040761516774,1676.970019561677,0.2,,1.0,1.0,-1.0,1677.1801912400024,1.0,0.0,0.0,0,1.0,1.0,1,0.21017167832542327,0,ZFM-02600,0.159,0.649,0.836,0.6990000000000001,0.593,0.343,53.0
342,1680.5018663416806,1681.1803318216812,1680.4870011616806,0.2,0.0625,,-1.0,-1.0,1680.9211912400024,-0.0625,0.0,0.0,0,0.0,1.0,-1,0.4341900783217625,0,ZFM-02600,0.243,0.684,0.752,0.6990000000000001,0.634,0.343,54.0
343,1685.3182513216852,1685.7176780416858,1685.2869544516852,0.2,,0.25,1.0,-1.0,1685.3951912400023,0.25,0.0,0.0,0,1.0,1.0,1,0.10823678831707184,0,ZFM-02600,0.219,0.716,0.752,0.729,0.634,0.308,55.0
344,1689.4512713116894,1690.1565674416902,1689.4412389816894,0.2,0.0625,,-1.0,-1.0,1689.7341912400025,-0.0625,0.0,0.0,0,0.0,1.0,-1,0.29295225831310745,0,ZFM-02600,0.297,0.744,0.677,0.729,0.67,0.308,56.0
345,1694.2345929316944,1694.4285402016944,1694.2148949016942,0.2,,0.0,-1.0,1.0,1694.0491912400023,0.0,0.0,0.25,0,0.0,0.0,1,-0.16570366169185036,0,ZFM-02600,0.367,0.67,0.677,0.656,0.67,0.378,57.0
346,1698.6342529216986,1699.2199943416992,1698.6351861616986,0.2,1.0,,1.0,1.0,1698.6921912400023,-1.0,0.0,0.0,0,1.0,0.0,-1,0.057005078303745904,0,ZFM-02600,0.331,0.7030000000000001,0.677,0.6910000000000001,0.67,0.34,58.0
347,1704.0837412517042,1704.4988664017046,1704.0848078117042,0.2,,0.125,1.0,-1.0,1704.3081912400023,0.125,0.0,0.0,0,1.0,1.0,1,0.22338342829812063,0,ZFM-02600,0.298,0.633,0.709,0.6910000000000001,0.603,0.34,59.0
348,1711.133636191711,1712.039412271712,1711.1347360817113,0.2,,0.0,-1.0,1.0,1711.6221912400024,0.0,0.0,0.25,0,0.0,0.0,1,0.48745515829114083,0,ZFM-02600,0.368,0.5690000000000001,0.638,0.6910000000000001,0.543,0.34,60.0
349,1716.1334361617162,1716.5653929617165,1716.130703101716,0.2,,1.0,1.0,-1.0,1716.0951912400024,1.0,0.0,0.0,0,1.0,1.0,1,-0.03551186171375775,0,ZFM-02600,0.331,0.512,0.638,0.722,0.543,0.406,61.0
350,1719.5996228417196,1719.94568823172,1719.6006894017196,0.2,,0.0,-1.0,1.0,1719.7011912400023,0.0,0.0,0.25,1,0.0,0.0,1,0.10050183828275294,0,ZFM-02600,0.398,0.461,0.5750000000000001,0.722,0.489,0.406,62.0
351,1727.3324828117275,1727.6656828217276,1727.3336160317274,0.2,,1.0,1.0,-1.0,1727.4761912400024,1.0,0.0,0.0,0,1.0,1.0,1,0.14257520827504777,0,ZFM-02600,0.358,0.41500000000000004,0.5750000000000001,0.749,0.489,0.465,63.0
352,1731.5323627817315,1733.6604499517337,1731.5295963917315,0.2,,0.0,1.0,-1.0,1733.3811912400024,0.0,0.0,0.25,0,1.0,1.0,1,1.8515948482709064,0,ZFM-02600,0.322,0.47400000000000003,0.617,0.749,0.54,0.465,64.0
353,1737.1486677617372,1737.6083884517377,1737.149534341737,0.2,,0.25,1.0,-1.0,1737.3401912400025,0.25,0.0,0.0,0,1.0,1.0,1,0.190656898265388,0,ZFM-02600,0.29,0.526,0.655,0.749,0.586,0.465,65.0
354,1741.815001081742,1742.3074518317424,1741.8141678317418,0.2,,0.125,1.0,-1.0,1742.0981912400025,0.125,0.0,0.0,0,1.0,1.0,1,0.2840234082607367,0,ZFM-02600,0.261,0.5740000000000001,0.6900000000000001,0.749,0.627,0.465,66.0
355,1745.3982760517454,1745.778171391746,1745.3991426317455,0.2,0.125,,1.0,1.0,1745.5351912400024,-0.125,0.0,0.0,0,1.0,0.0,-1,0.13604860825694232,0,ZFM-02600,0.23500000000000001,0.516,0.721,0.749,0.5640000000000001,0.465,67.0
356,1750.5978893717506,1750.9183239917509,1750.5987559517507,0.2,,1.0,1.0,-1.0,1750.6891912400024,1.0,0.0,0.0,0,1.0,1.0,1,0.09043528825168323,0,ZFM-02600,0.211,0.465,0.749,0.749,0.508,0.465,68.0
357,1754.114371021754,1754.4470710817545,1754.114404351754,0.2,,1.0,1.0,-1.0,1754.2531912400025,1.0,0.0,0.0,0,1.0,1.0,1,0.13878688824843266,0,ZFM-02600,0.19,0.518,0.774,0.749,0.557,0.465,69.0
358,1757.6307860117577,1758.3723785117584,1757.6193871517576,0.2,,0.125,-1.0,1.0,1757.5211912400025,0.125,0.0,0.0,0,0.0,0.0,1,-0.09819591175505593,0,ZFM-02600,0.271,0.466,0.6970000000000001,0.749,0.501,0.465,70.0
359,1762.7138443217627,1763.111837851763,1762.7150108717628,0.2,,0.25,1.0,-1.0,1762.8831912400024,0.25,0.0,0.0,0,1.0,1.0,1,0.16818036823951843,0,ZFM-02600,0.244,0.42,0.6970000000000001,0.774,0.501,0.519,71.0
360,1766.3137842917663,1767.5825907317676,1766.3096513717662,0.2,,0.0,1.0,-1.0,1767.3341912400024,0.0,0.0,0.25,0,1.0,1.0,1,1.024539868236161,0,ZFM-02600,0.22,0.47800000000000004,0.727,0.774,0.551,0.519,72.0
361,1770.6966792917708,1771.0635426017711,1770.6926130317706,0.2,0.125,,1.0,1.0,1770.8761912400025,-0.125,0.0,0.0,0,1.0,0.0,-1,0.18357820823189286,0,ZFM-02600,0.198,0.43,0.754,0.774,0.496,0.519,73.0
362,1777.5130309217775,1777.8539968217779,1777.5138975017776,0.2,,0.25,1.0,-1.0,1777.6441912400026,0.25,0.0,0.0,0,1.0,1.0,1,0.13029373822496382,0,ZFM-02600,0.178,0.387,0.779,0.774,0.447,0.519,74.0
363,1780.962852571781,1781.3252163317813,1780.963885801781,0.2,0.125,,1.0,1.0,1780.9751912400025,-0.125,0.0,0.0,0,1.0,0.0,-1,0.011305438221370423,0,ZFM-02600,0.16,0.34800000000000003,0.801,0.774,0.402,0.519,75.0
364,1784.5627925417846,1785.2328588617852,1784.5638591017846,0.2,,0.0625,-1.0,1.0,1784.9751912400025,0.0625,0.0,0.0,0,0.0,0.0,1,0.4113321382178583,0,ZFM-02600,0.244,0.41300000000000003,0.721,0.774,0.462,0.519,76.0
365,1789.4789008817895,1789.81890021179,1789.4798341217895,0.2,,1.0,1.0,-1.0,1789.6321912400024,1.0,0.0,0.0,0,1.0,1.0,1,0.15235711821287623,0,ZFM-02600,0.22,0.372,0.721,0.797,0.462,0.5670000000000001,77.0
366,1795.2785541917954,1795.926789361796,1795.2794541017954,0.2,,0.0,-1.0,1.0,1795.6911912400024,0.0,0.0,0.25,0,0.0,0.0,1,0.411737138206945,0,ZFM-02600,0.298,0.335,0.649,0.797,0.41600000000000004,0.5670000000000001,78.0
367,1801.5617258118016,1801.8855267618019,1801.5600926418015,0.2,,0.0625,1.0,-1.0,1801.6461912400025,0.0625,0.0,0.0,0,1.0,1.0,1,0.08609859820103338,0,ZFM-02600,0.268,0.301,0.649,0.8170000000000001,0.41600000000000004,0.61,79.0
368,1805.7111441618058,1807.1152037418071,1805.6887130718058,0.2,,0.0,1.0,-1.0,1806.8321912400024,0.0,0.0,0.25,1,1.0,1.0,1,1.1434781681966797,0,ZFM-02600,0.241,0.371,0.684,0.8170000000000001,0.47400000000000003,0.61,80.0
369,1813.1276357718132,1813.5110640918135,1813.1286690018133,0.2,1.0,,1.0,1.0,1813.3031912400024,-1.0,0.0,0.0,0,1.0,0.0,-1,0.17452223818918355,0,ZFM-02600,0.217,0.334,0.715,0.8170000000000001,0.427,0.61,81.0
370,1816.7273424318169,1816.993882441817,1816.7283090018168,0.2,,0.25,1.0,-1.0,1816.6391912400024,0.25,0.0,0.0,0,1.0,1.0,1,-0.08911776181435016,0,ZFM-02600,0.195,0.301,0.744,0.8170000000000001,0.384,0.61,82.0
371,1820.2604224218203,1820.7639387318209,1820.2612890018204,0.2,,0.0,1.0,-1.0,1820.4471912400024,0.0,0.0,0.25,0,1.0,1.0,1,0.18590223818205232,0,ZFM-02600,0.176,0.371,0.77,0.8170000000000001,0.446,0.61,83.0
372,1824.7936690518247,1825.193662381825,1824.7946022918247,0.2,0.25,,1.0,1.0,1824.9441912400025,-0.25,0.0,0.0,0,1.0,0.0,-1,0.14958894817777946,0,ZFM-02600,0.158,0.334,0.793,0.8170000000000001,0.401,0.61,84.0
373,1830.2932523718302,1831.6952121618317,1830.2942189418304,0.2,0.0,,-1.0,-1.0,1831.4521912400025,-0.0,0.0,0.25,1,0.0,1.0,-1,1.157972298172126,0,ZFM-02600,0.242,0.3,0.713,0.8170000000000001,0.361,0.61,85.0
374,1835.9263556718358,1836.2995850118364,1835.912157091836,0.2,,1.0,1.0,-1.0,1836.1061912400025,1.0,0.0,0.0,0,1.0,1.0,1,0.1940341481665655,0,ZFM-02600,0.218,0.37,0.713,0.836,0.361,0.549,86.0
375,1839.7927356618397,1840.2914857818403,1839.7938022218398,0.2,0.0,,-1.0,-1.0,1839.7981912400026,-0.0,0.0,0.25,0,0.0,1.0,-1,0.004389018162783032,0,ZFM-02600,0.296,0.433,0.642,0.836,0.425,0.549,87.0
376,1846.6423839618467,1847.5943887518476,1846.6434171918468,0.2,,0.0,1.0,-1.0,1847.0301912400025,0.0,0.0,0.25,1,1.0,1.0,1,0.38677404815575755,0,ZFM-02600,0.267,0.49,0.642,0.852,0.425,0.494,88.0
377,1852.5586589418526,1852.7727042018528,1852.5587256018525,0.2,,0.0,-1.0,1.0,1852.5321912400025,0.0,0.0,0.25,0,0.0,0.0,1,-0.026534361850053756,0,ZFM-02600,0.34,0.441,0.578,0.852,0.382,0.494,89.0
378,1858.5081639318585,1858.978816861859,1858.5093638118585,0.2,0.0625,,1.0,1.0,1858.7751912400024,-0.0625,0.0,0.0,0,1.0,0.0,-1,0.2658274281438935,0,ZFM-02600,0.306,0.497,0.578,0.867,0.382,0.445,90.0
379,1863.8081005518638,1864.3712775618644,1863.808967131864,0.2,0.0,,1.0,1.0,1864.0511912400025,-0.0,0.0,0.25,0,1.0,0.0,-1,0.24222410813854367,0,ZFM-02600,0.275,0.547,0.62,0.867,0.444,0.445,91.0
380,1870.6742472018707,1871.2387240818712,1870.6752471018706,0.2,,0.0625,1.0,-1.0,1870.9401912400026,0.0625,0.0,0.0,0,1.0,1.0,1,0.264944138132023,0,ZFM-02600,0.248,0.492,0.658,0.867,0.4,0.445,92.0
381,1874.3906755218743,1874.7414737718748,1874.3778768018744,0.2,,0.25,1.0,-1.0,1874.5501912400025,0.25,0.0,0.0,0,1.0,1.0,1,0.17231443812806901,0,ZFM-02600,0.223,0.543,0.6920000000000001,0.867,0.46,0.445,93.0
382,1880.8071671418809,1881.7325412618818,1880.8081670418808,0.2,,0.25,1.0,-1.0,1881.5631912400024,0.25,0.0,0.0,0,1.0,1.0,1,0.7550241981216459,0,ZFM-02600,0.201,0.589,0.723,0.867,0.514,0.445,94.0
383,1885.4901321318855,1886.2517892918863,1885.4797998318854,0.2,,0.0625,1.0,-1.0,1886.0841912400026,0.0625,0.0,0.0,0,1.0,1.0,1,0.6043914081171806,0,ZFM-02600,0.181,0.63,0.751,0.867,0.562,0.445,95.0
384,1889.3562788118893,1889.7250419318898,1889.3571120618894,0.8,1.0,,1.0,1.0,1889.4741912400025,-1.0,1.0,1.0,0,1.0,0.0,-1,0.11707917811304469,0,ZFM-02600,0.163,0.5670000000000001,0.776,0.867,0.506,0.445,0.0
385,1894.5063304218945,1895.026778371895,1894.5067303818946,0.8,0.0625,,1.0,1.0,1894.7571912400026,-0.0625,1.0,1.0,0,1.0,0.0,-1,0.25046085810799923,0,ZFM-02600,0.146,0.61,0.798,0.867,0.556,0.445,1.0
386,1898.3395470618984,1898.8206989418989,1898.3176825818982,0.8,,0.0625,-1.0,1.0,1898.3431912400026,0.0625,1.0,1.0,0,0.0,0.0,1,0.02550865810439973,0,ZFM-02600,0.232,0.649,0.718,0.867,0.6,0.445,2.0
387,1904.2056937219043,1904.7443731819048,1904.1839958919043,0.8,0.25,,1.0,1.0,1904.5041912400025,-0.25,1.0,1.0,0,1.0,0.0,-1,0.3201953480981956,0,ZFM-02600,0.209,0.684,0.718,0.88,0.6,0.4,3.0
388,1908.0555087019081,1908.6043204819086,1908.0562752919082,0.8,0.25,,1.0,1.0,1908.3561912400025,-0.25,1.0,1.0,0,1.0,0.0,-1,0.2999159480943945,0,ZFM-02600,0.188,0.716,0.746,0.88,0.64,0.4,4.0
389,1912.904890381913,1913.5538588119136,1912.9059236119128,0.8,0.0,,1.0,1.0,1912.9991912400026,-0.0,1.0,0.75,0,1.0,0.0,-1,0.09326762808973399,0,ZFM-02600,0.169,0.744,0.772,0.88,0.676,0.4,5.0
390,1920.3380803219204,1920.9041570419208,1920.3391802119204,0.8,0.0625,,1.0,1.0,1920.6421912400026,-0.0625,1.0,1.0,0,1.0,0.0,-1,0.30301102808221003,0,ZFM-02600,0.152,0.77,0.795,0.88,0.708,0.4,6.0
391,1926.2713536019262,1926.9514522519269,1926.2721535219264,0.8,0.0,,-1.0,-1.0,1926.7001912400026,-0.0,1.0,0.75,0,0.0,1.0,-1,0.4280377180762116,0,ZFM-02600,0.23700000000000002,0.6930000000000001,0.715,0.88,0.638,0.4,7.0
392,1931.3041169419314,1931.7370403119317,1931.2884185119312,0.8,0.0,,1.0,1.0,1931.4941912400027,-0.0,1.0,0.75,0,1.0,0.0,-1,0.20577272807145164,0,ZFM-02600,0.213,0.624,0.715,0.892,0.638,0.46,8.0
393,1934.887358581935,1935.3169822819352,1934.888391811935,0.8,,0.25,1.0,-1.0,1935.1041912400026,0.25,1.0,1.0,0,1.0,1.0,1,0.2157994280676121,0,ZFM-02600,0.192,0.561,0.744,0.892,0.5740000000000001,0.46,9.0
394,1943.020011901943,1944.2040934819443,1943.0210118019431,0.8,,0.0,1.0,-1.0,1943.2591912400026,0.0,1.0,0.75,1,1.0,1.0,1,0.23817943805943287,0,ZFM-02600,0.17300000000000001,0.605,0.769,0.892,0.616,0.46,10.0
395,1948.4864985319484,1948.895524291949,1948.4819656519485,0.8,,0.0,1.0,-1.0,1948.7211912400026,0.0,1.0,0.75,0,1.0,1.0,1,0.2392255880540688,0,ZFM-02600,0.155,0.645,0.792,0.892,0.655,0.46,11.0
396,1952.002946851952,1952.7822689119528,1951.985615251952,0.8,0.0,,1.0,1.0,1952.5331912400027,-0.0,1.0,0.75,0,1.0,0.0,-1,0.5475759880507667,0,ZFM-02600,0.14,0.58,0.8130000000000001,0.892,0.589,0.46,12.0
397,1956.3527118319564,1956.7124091919568,1956.3475790119564,0.8,0.0625,,1.0,1.0,1956.3701912400027,-0.0625,1.0,1.0,0,1.0,0.0,-1,0.022612228046227756,0,ZFM-02600,0.126,0.622,0.8320000000000001,0.892,0.63,0.46,13.0
398,1960.7192084719607,1960.968550201961,1960.7125424719607,0.8,0.125,,-1.0,-1.0,1960.6001912400027,-0.125,1.0,1.0,0,0.0,1.0,-1,-0.11235123195797314,0,ZFM-02600,0.213,0.56,0.749,0.892,0.5670000000000001,0.46,14.0
399,1965.102336781965,1965.4672002919656,1965.0925044319652,0.8,1.0,,1.0,1.0,1965.2511912400025,-1.0,1.0,1.0,0,1.0,0.0,-1,0.15868680803737334,0,ZFM-02600,0.192,0.504,0.749,0.903,0.5670000000000001,0.514,15.0
400,1968.6187184419687,1968.978215821969,1968.6188184319687,0.8,0.0625,,1.0,1.0,1968.7781912400026,-0.0625,1.0,1.0,0,1.0,0.0,-1,0.15937280803382237,0,ZFM-02600,0.17300000000000001,0.554,0.774,0.903,0.611,0.514,16.0
401,1972.6018534219727,1973.0553747319732,1972.5867882619725,0.8,0.125,,1.0,1.0,1972.6551912400025,-0.125,1.0,1.0,0,1.0,0.0,-1,0.06840297803000794,0,ZFM-02600,0.155,0.598,0.796,0.903,0.65,0.514,17.0
402,1976.2015600819761,1976.5904211919767,1976.1948274219762,0.8,0.0,,1.0,1.0,1976.2881912400026,-0.0,1.0,0.75,0,1.0,0.0,-1,0.09336381802631877,0,ZFM-02600,0.14,0.638,0.8170000000000001,0.903,0.685,0.514,18.0
403,1979.88489171198,1980.1394329219802,1979.8853916619798,0.8,0.125,,1.0,1.0,1979.7831912400027,-0.125,1.0,1.0,0,1.0,0.0,-1,-0.10220042197715884,0,ZFM-02600,0.126,0.675,0.835,0.903,0.716,0.514,19.0
404,1985.7342400519858,1986.1993935319863,1985.7347066719858,0.8,0.0,,1.0,1.0,1985.9351912400027,-0.0,1.0,0.75,1,1.0,0.0,-1,0.20048456801691827,0,ZFM-02600,0.113,0.707,0.852,0.903,0.745,0.514,20.0
405,1989.8340633619898,1990.2669534019903,1989.8349966019898,0.8,1.0,,1.0,1.0,1989.9741912400027,-1.0,1.0,1.0,0,1.0,0.0,-1,0.13919463801289567,0,ZFM-02600,0.10200000000000001,0.736,0.866,0.903,0.77,0.514,21.0
406,1993.3840083319933,1993.7045762719938,1993.3849749019935,0.8,,1.0,1.0,-1.0,1993.5371912400026,1.0,1.0,1.0,0,1.0,1.0,1,0.1522163380091115,0,ZFM-02600,0.092,0.663,0.88,0.903,0.6930000000000001,0.514,22.0
407,1998.4670333119984,1998.878225521999,1998.4589341219985,0.8,0.25,,1.0,1.0,1998.6101912400027,-0.25,1.0,1.0,0,1.0,0.0,-1,0.15125711800419595,0,ZFM-02600,0.083,0.596,0.892,0.903,0.624,0.514,23.0
408,2002.2501216320022,2002.5983534720026,2002.2452221220024,0.8,1.0,,1.0,1.0,2002.3981912400027,-1.0,1.0,1.0,0,1.0,0.0,-1,0.1529691180003283,0,ZFM-02600,0.074,0.637,0.903,0.903,0.661,0.514,24.0
409,2007.2663866220073,2007.6397159520077,2007.2495216420073,0.8,1.0,,1.0,1.0,2007.4151912400027,-1.0,1.0,1.0,0,1.0,0.0,-1,0.16566959799547476,0,ZFM-02600,0.067,0.673,0.912,0.903,0.6950000000000001,0.514,25.0
410,2015.4158715920155,2015.8221309620158,2015.4054726320155,0.8,0.0625,,-1.0,-1.0,2015.6151912400026,-0.0625,1.0,1.0,0,0.0,1.0,-1,0.20971860798704256,0,ZFM-02600,0.16,0.606,0.8210000000000001,0.903,0.626,0.514,26.0
411,2023.0488082220231,2023.4699661020236,2023.039742462023,0.8,0.0625,,1.0,1.0,2023.2071912400027,-0.0625,1.0,1.0,0,1.0,0.0,-1,0.16744877797964364,0,ZFM-02600,0.14400000000000002,0.545,0.8210000000000001,0.913,0.626,0.5630000000000001,27.0
412,2026.915088222027,2027.3313132620274,2026.913021762027,0.8,0.0,,1.0,1.0,2027.1041912400026,-0.0,1.0,0.75,0,1.0,0.0,-1,0.1911694779755635,0,ZFM-02600,0.13,0.591,0.839,0.913,0.663,0.5630000000000001,28.0
413,2030.7317731820308,2031.8206642820319,2030.7296733920307,0.8,,0.125,-1.0,1.0,2030.9221912400026,0.125,1.0,1.0,0,0.0,0.0,1,0.1925178479718852,0,ZFM-02600,0.217,0.632,0.755,0.913,0.6970000000000001,0.5630000000000001,29.0
414,2038.7644698320387,2039.2111251620393,2038.7509378520388,0.8,0.0625,,1.0,1.0,2038.9881912400026,-0.0625,1.0,1.0,0,1.0,0.0,-1,0.23725338796384676,0,ZFM-02600,0.195,0.668,0.755,0.921,0.6970000000000001,0.507,30.0
415,2046.4642664420464,2048.2803181520485,2046.4455683120464,0.8,0.0625,,1.0,1.0,2047.6711912400026,-0.0625,1.0,1.0,0,1.0,0.0,-1,1.2256229279562376,0,ZFM-02600,0.176,0.7020000000000001,0.78,0.921,0.727,0.507,31.0
416,2051.713908092052,2052.3305130920526,2051.6918436320516,0.8,0.0625,,-1.0,-1.0,2052.0751912400024,-0.0625,1.0,1.0,0,0.0,1.0,-1,0.3833476079507818,0,ZFM-02600,0.258,0.631,0.7020000000000001,0.921,0.654,0.507,32.0
417,2057.5135614020573,2057.932919462058,2057.5011293120574,0.8,0.25,,1.0,1.0,2057.4301912400024,-0.25,1.0,1.0,0,1.0,0.0,-1,-0.07093807205501435,0,ZFM-02600,0.232,0.5680000000000001,0.7020000000000001,0.929,0.654,0.556,33.0
418,2061.4300697120616,2061.7622698220616,2061.4091051420614,0.8,0.25,,1.0,1.0,2061.4881912400024,-0.25,1.0,1.0,0,1.0,0.0,-1,0.07908609794094446,0,ZFM-02600,0.209,0.611,0.731,0.929,0.6890000000000001,0.556,34.0
419,2067.796566332068,2068.6467146420687,2067.797399582068,0.2,,0.0,-1.0,1.0,2068.2851912400024,0.0,1.0,0.75,0,0.0,0.0,1,0.4877916579343946,0,ZFM-02600,0.28800000000000003,0.65,0.658,0.929,0.72,0.556,35.0
420,2075.879357972076,2076.2683190720763,2075.8776581420757,0.2,,1.0,1.0,-1.0,2076.0691912400025,1.0,1.0,1.0,0,1.0,1.0,1,0.19153309792682194,0,ZFM-02600,0.259,0.585,0.658,0.936,0.72,0.6,36.0
421,2079.99534633208,2080.3847740520805,2079.98898030208,0.2,0.0625,,1.0,1.0,2080.0391912400023,-0.0625,1.0,1.0,0,1.0,0.0,-1,0.05021093792220199,0,ZFM-02600,0.233,0.527,0.6920000000000001,0.936,0.648,0.6,37.0
422,2084.1955596020844,2085.1692622220853,2084.192626562084,0.2,0.0,,-1.0,-1.0,2084.9521912400023,-0.0,1.0,0.75,0,0.0,1.0,-1,0.7595646779182061,0,ZFM-02600,0.31,0.47400000000000003,0.623,0.936,0.583,0.6,38.0
423,2089.6117845920894,2089.94175159209,2089.6082516120896,0.2,,0.0625,1.0,-1.0,2089.7601912400023,0.0625,1.0,1.0,0,1.0,1.0,1,0.15193962791272497,0,ZFM-02600,0.279,0.527,0.623,0.9430000000000001,0.583,0.54,39.0
424,2093.4947629220937,2093.7468043820936,2093.4755315120933,0.2,0.0,,1.0,1.0,2093.4761912400027,-0.0,1.0,0.75,1,1.0,0.0,-1,0.0006597279093512043,0,ZFM-02600,0.251,0.47400000000000003,0.661,0.9430000000000001,0.525,0.54,40.0
425,2100.2443212321004,2100.5714885121006,2100.2421881121004,0.2,0.0625,,-1.0,-1.0,2100.3551912400026,-0.0625,1.0,1.0,0,0.0,1.0,-1,0.11300312790217504,0,ZFM-02600,0.326,0.427,0.595,0.9430000000000001,0.47200000000000003,0.54,41.0
426,2107.844061182108,2109.4517670621094,2107.822763312108,0.2,0.0,,-1.0,-1.0,2109.1871912400024,-0.0,1.0,0.75,0,0.0,1.0,-1,1.364427927894667,0,ZFM-02600,0.393,0.484,0.595,0.848,0.47200000000000003,0.486,42.0
427,2116.2767511621164,2116.6472141121167,2116.2766845021165,0.2,,0.25,1.0,-1.0,2116.4591912400024,0.25,1.0,1.0,0,1.0,1.0,1,0.18250673788588756,0,ZFM-02600,0.354,0.536,0.595,0.864,0.47200000000000003,0.438,43.0
428,2121.2431211421213,2121.6306490521215,2121.237321722121,0.2,,0.0625,-1.0,1.0,2121.3371912400025,0.0625,1.0,1.0,0,0.0,0.0,1,0.09986951788141596,0,ZFM-02600,0.419,0.482,0.535,0.864,0.425,0.438,44.0
429,2126.592986102127,2126.960549342127,2126.5896197721268,0.2,,1.0,1.0,-1.0,2126.7621912400027,1.0,1.0,1.0,0,1.0,1.0,1,0.17257146787596866,0,ZFM-02600,0.377,0.434,0.535,0.877,0.425,0.494,45.0
430,2131.4091044421316,2131.831295552132,2131.3842402621312,0.2,,0.125,1.0,-1.0,2131.6271912400025,0.125,1.0,1.0,0,1.0,1.0,1,0.24295097787125997,0,ZFM-02600,0.339,0.49,0.582,0.877,0.483,0.494,46.0
431,2135.042407742135,2135.5084278021354,2135.043540962135,0.2,,0.0625,1.0,-1.0,2135.3151912400026,0.0625,1.0,1.0,0,1.0,1.0,1,0.2716502778675931,0,ZFM-02600,0.305,0.541,0.624,0.877,0.534,0.494,47.0
432,2139.3422777121395,2139.7460706621396,2139.3378448221392,0.2,0.125,,1.0,1.0,2139.5531912400024,-0.125,1.0,1.0,0,1.0,0.0,-1,0.21534641786320208,0,ZFM-02600,0.275,0.487,0.661,0.877,0.481,0.494,48.0
433,2142.991979372143,2143.3781074221433,2142.977147522143,0.2,,0.125,1.0,-1.0,2143.1621912400024,0.125,1.0,1.0,0,1.0,1.0,1,0.1850437178595712,0,ZFM-02600,0.247,0.439,0.6950000000000001,0.877,0.433,0.494,49.0
434,2149.4748976821493,2149.82276289215,2149.4757642621494,0.2,,0.25,1.0,-1.0,2149.6241912400023,0.25,1.0,1.0,0,1.0,1.0,1,0.14842697785297787,0,ZFM-02600,0.222,0.495,0.726,0.877,0.49,0.494,50.0
435,2155.057972652155,2155.3078143321554,2155.054073042155,0.2,,0.25,1.0,-1.0,2155.0551912400024,0.25,1.0,1.0,0,1.0,1.0,1,0.0011181978475178767,0,ZFM-02600,0.2,0.545,0.753,0.877,0.541,0.494,51.0
436,2160.957682622161,2161.2805836621615,2160.936018122161,0.2,,0.25,1.0,-1.0,2161.0311912400025,0.25,1.0,1.0,0,1.0,1.0,1,0.09517311784156846,0,ZFM-02600,0.18,0.591,0.778,0.877,0.587,0.494,52.0
437,2164.8906559521647,2165.2682181921655,2164.891655852165,0.2,,0.0,1.0,-1.0,2165.0711912400025,0.0,1.0,0.75,0,1.0,1.0,1,0.17953538783740441,0,ZFM-02600,0.162,0.632,0.8,0.877,0.628,0.494,53.0
438,2168.5738875921684,2168.990945882169,2168.5749541521686,0.2,0.25,,-1.0,-1.0,2168.7171912400026,-0.25,1.0,1.0,0,0.0,1.0,-1,0.1422370878340189,0,ZFM-02600,0.246,0.668,0.72,0.877,0.665,0.494,54.0
439,2174.7234059121747,2175.098235092175,2174.724572462175,0.2,,0.25,1.0,-1.0,2174.9001912400026,0.25,1.0,1.0,0,1.0,1.0,1,0.17561877782782176,0,ZFM-02600,0.221,0.7020000000000001,0.72,0.89,0.665,0.445,55.0
440,2179.6565458821797,2180.02377582218,2179.6445470821795,0.2,0.25,,1.0,1.0,2179.5561912400026,-0.25,1.0,1.0,0,1.0,0.0,-1,-0.08835584217695214,0,ZFM-02600,0.199,0.631,0.748,0.89,0.599,0.445,56.0
441,2184.3229458621845,2184.6771104421846,2184.3238457721845,0.2,,0.25,1.0,-1.0,2184.4421912400026,0.25,1.0,1.0,0,1.0,1.0,1,0.11834546781801691,0,ZFM-02600,0.179,0.5680000000000001,0.773,0.89,0.539,0.445,57.0
442,2188.022809172188,2188.3203460821883,2188.018476272188,0.2,,0.125,1.0,-1.0,2188.1481912400027,0.125,1.0,1.0,0,1.0,1.0,1,0.12971496781483438,0,ZFM-02600,0.161,0.611,0.796,0.89,0.585,0.445,58.0
443,2191.5726208221918,2192.2591854921925,2191.5517895721914,0.2,,0.25,1.0,-1.0,2191.4011912400024,0.25,1.0,1.0,0,1.0,1.0,1,-0.15059833218901986,0,ZFM-02600,0.145,0.65,0.8160000000000001,0.89,0.626,0.445,59.0
444,2196.2556191421963,2196.778400192197,2196.251419562196,0.2,0.0,,-1.0,-1.0,2196.1801912400024,-0.0,1.0,0.75,0,0.0,1.0,-1,-0.07122832219374686,0,ZFM-02600,0.231,0.685,0.735,0.89,0.664,0.445,60.0
445,2202.7550358022027,2203.186792622203,2202.731704802203,0.2,,0.25,1.0,-1.0,2202.903191240003,0.25,1.0,1.0,0,1.0,1.0,1,0.17148643780001294,0,ZFM-02600,0.20800000000000002,0.717,0.735,0.901,0.664,0.4,61.0
446,2206.3884057622063,2207.5034609122076,2206.3870059022065,0.2,,0.0,1.0,-1.0,2207.3431912400024,0.0,1.0,0.75,0,1.0,1.0,1,0.9561853377958869,0,ZFM-02600,0.187,0.745,0.761,0.901,0.6970000000000001,0.4,62.0
447,2215.5211590622157,2216.012943212216,2215.5182593522154,0.8,0.125,,1.0,1.0,2215.6301912400027,-0.125,1.0,1.0,0,1.0,0.0,-1,0.11193188778725016,0,ZFM-02600,0.168,0.671,0.785,0.901,0.628,0.4,63.0
448,2219.2542190522195,2220.06063840222,2219.244253382219,0.8,0.0,,-1.0,-1.0,2219.8901912400024,-0.0,1.0,0.75,0,0.0,1.0,-1,0.6459378577833377,0,ZFM-02600,0.251,0.604,0.707,0.901,0.5650000000000001,0.4,64.0
449,2225.5873856722255,2227.3550422222274,2225.5881855922257,0.8,0.25,,1.0,1.0,2226.7261912400027,-0.25,1.0,1.0,0,1.0,0.0,-1,1.1380056477769358,0,ZFM-02600,0.226,0.543,0.707,0.911,0.5650000000000001,0.46,65.0
450,2232.5035273222325,2232.6891420922325,2232.4854624622326,0.8,0.0,,-1.0,-1.0,2232.4331912400025,-0.0,1.0,0.75,0,0.0,1.0,-1,-0.05227122223004699,0,ZFM-02600,0.304,0.489,0.636,0.911,0.508,0.46,66.0
451,2237.086702292237,2237.5027606822377,2237.082436052237,0.8,0.0625,,-1.0,-1.0,2237.2951912400026,-0.0625,1.0,1.0,0,0.0,1.0,-1,0.2127551877656515,0,ZFM-02600,0.373,0.54,0.636,0.8190000000000001,0.508,0.41400000000000003,67.0
452,2243.4695972722434,2244.058338392244,2243.4463995922433,0.8,,0.0625,1.0,-1.0,2243.6321912400026,0.0625,1.0,1.0,0,1.0,1.0,1,0.18579164775928803,0,ZFM-02600,0.336,0.586,0.636,0.838,0.508,0.373,68.0
453,2247.3859056022475,2248.153695482248,2247.3840391222475,0.8,0.0625,,-1.0,-1.0,2247.8711912400026,-0.0625,1.0,1.0,0,0.0,1.0,-1,0.48715211775515854,0,ZFM-02600,0.402,0.627,0.5720000000000001,0.838,0.558,0.373,69.0
454,2252.3857055722524,2252.874423362253,2252.3826725422523,0.8,0.125,,1.0,1.0,2252.6171912400027,-0.125,1.0,1.0,0,1.0,0.0,-1,0.23451869775044543,0,ZFM-02600,0.362,0.5650000000000001,0.5720000000000001,0.854,0.558,0.435,70.0
455,2257.0018772422573,2257.4798627722575,2256.9963111322572,0.8,0.25,,1.0,1.0,2257.276191240003,-0.25,1.0,1.0,0,1.0,0.0,-1,0.2798801077456119,0,ZFM-02600,0.326,0.608,0.615,0.854,0.602,0.435,71.0
456,2263.784865542264,2264.125631462264,2263.766934002264,0.8,1.0,,1.0,1.0,2263.939191240003,-1.0,1.0,1.0,0,1.0,0.0,-1,0.17225723773890422,0,ZFM-02600,0.293,0.647,0.654,0.854,0.642,0.435,72.0
457,2267.4848621722676,2267.9059533922677,2267.4722301022675,0.8,1.0,,1.0,1.0,2267.6251912400026,-1.0,1.0,1.0,0,1.0,0.0,-1,0.1529611377350193,0,ZFM-02600,0.264,0.683,0.6880000000000001,0.854,0.677,0.435,73.0
458,2271.201323822271,2271.715005782272,2271.2021904022713,0.8,0.125,,1.0,1.0,2271.4251912400027,-0.125,1.0,1.0,0,1.0,0.0,-1,0.22300083773143342,0,ZFM-02600,0.23800000000000002,0.714,0.719,0.854,0.71,0.435,74.0
459,2274.951048812275,2275.4930279422756,2274.938516732275,0.8,0.125,,1.0,1.0,2275.1061912400028,-0.125,1.0,1.0,0,1.0,0.0,-1,0.167674507727952,0,ZFM-02600,0.214,0.743,0.747,0.854,0.739,0.435,75.0
460,2282.283948782282,2282.576319542283,2282.2847820322822,0.8,0.0,,1.0,1.0,2282.1321912400026,-0.0,1.0,0.75,0,1.0,0.0,-1,-0.15259079227962502,0,ZFM-02600,0.192,0.769,0.773,0.854,0.765,0.435,76.0
461,2289.316812092289,2289.72670443229,2289.3164121322893,0.8,0.25,,1.0,1.0,2289.5121912400027,-0.25,1.0,1.0,0,1.0,0.0,-1,0.19577910771340612,0,ZFM-02600,0.17300000000000001,0.792,0.795,0.854,0.788,0.435,77.0
462,2293.0831020922933,2293.5787191922936,2293.0713699322932,0.8,1.0,,1.0,1.0,2293.2081912400026,-1.0,1.0,1.0,0,1.0,0.0,-1,0.13682130770939693,0,ZFM-02600,0.156,0.8130000000000001,0.8160000000000001,0.854,0.81,0.435,78.0
463,2297.033173712297,2297.4448658722977,2297.0187084922973,0.8,0.125,,1.0,1.0,2297.1831912400025,-0.125,1.0,1.0,0,1.0,0.0,-1,0.1644827477052786,0,ZFM-02600,0.14,0.8310000000000001,0.834,0.854,0.8290000000000001,0.435,79.0
464,2304.2824153823044,2304.6051497723047,2304.2793156923044,0.8,0.25,,1.0,1.0,2304.410191240003,-0.25,1.0,1.0,0,1.0,0.0,-1,0.13087554769845156,0,ZFM-02600,0.126,0.848,0.851,0.854,0.846,0.435,80.0
465,2310.598917002311,2311.018608362311,2310.585918302311,0.8,1.0,,1.0,1.0,2310.778191240003,-1.0,1.0,1.0,0,1.0,0.0,-1,0.19227293769199605,0,ZFM-02600,0.114,0.863,0.866,0.854,0.861,0.435,81.0
466,2314.282115312314,2314.6481453723145,2314.2828819023143,0.8,0.0625,,1.0,1.0,2314.4511912400026,-0.0625,1.0,1.0,0,1.0,0.0,-1,0.16830933768824252,0,ZFM-02600,0.10200000000000001,0.877,0.879,0.854,0.875,0.435,82.0
467,2317.881921962318,2319.6209813723194,2317.869189902318,0.8,0.0,,1.0,1.0,2319.352191240003,-0.0,1.0,0.75,0,1.0,0.0,-1,1.483001337684982,0,ZFM-02600,0.092,0.889,0.891,0.854,0.888,0.435,83.0
468,2323.3316436023233,2323.4831284523234,2323.3288438823233,0.8,1.0,,1.0,1.0,2323.2011912400026,-1.0,1.0,1.0,0,1.0,0.0,-1,-0.12765264232075424,0,ZFM-02600,0.083,0.9,0.902,0.854,0.899,0.435,84.0
469,2331.3311435723313,2331.6234143423317,2331.3087791423313,0.8,0.25,,1.0,1.0,2331.437191240003,-0.25,1.0,1.0,0,1.0,0.0,-1,0.12841209767157125,0,ZFM-02600,0.075,0.91,0.912,0.854,0.909,0.435,85.0
470,2336.930816882337,2337.3210778523376,2336.931750122337,0.8,0.25,,1.0,1.0,2337.0411912400027,-0.25,1.0,1.0,0,1.0,0.0,-1,0.10944111766593778,0,ZFM-02600,0.067,0.919,0.921,0.854,0.918,0.435,86.0
471,2340.6473451923407,2341.1654267123413,2340.6473785223407,0.8,0.0,,1.0,1.0,2340.7041912400027,-0.0,1.0,0.75,0,1.0,0.0,-1,0.05681271766206919,0,ZFM-02600,0.06,0.927,0.929,0.854,0.926,0.435,87.0
472,2344.5635868623444,2345.3633402123455,2344.5600205523447,0.8,0.0,,-1.0,-1.0,2344.4941912400027,-0.0,1.0,0.75,0,0.0,1.0,-1,-0.06582931234197531,0,ZFM-02600,0.154,0.835,0.836,0.854,0.834,0.435,88.0
473,2350.5299235023504,2350.968312992351,2350.5309567323507,0.8,0.25,,1.0,1.0,2350.700191240003,-0.25,1.0,1.0,0,1.0,0.0,-1,0.1692345076521633,0,ZFM-02600,0.139,0.751,0.836,0.868,0.834,0.492,89.0
474,2359.4962601123593,2360.01270846236,2359.4975599823597,0.8,0.0,,1.0,1.0,2359.5901912400027,-0.0,1.0,0.75,0,1.0,0.0,-1,0.09263125764300639,0,ZFM-02600,0.125,0.776,0.852,0.868,0.85,0.492,90.0
475,2366.8791217523667,2367.277381922367,2366.8558574123667,0.8,1.0,,1.0,1.0,2367.0431912400027,-1.0,1.0,1.0,0,1.0,0.0,-1,0.1873338276359391,0,ZFM-02600,0.113,0.798,0.867,0.868,0.865,0.492,91.0
476,2370.5622200723706,2370.8540242223708,2370.5631533123706,0.8,0.25,,1.0,1.0,2370.571191240003,-0.25,1.0,1.0,0,1.0,0.0,-1,0.008037927632358333,0,ZFM-02600,0.101,0.8190000000000001,0.88,0.868,0.879,0.492,92.0
477,2378.311845032378,2378.7414354023786,2378.308412042378,0.2,,0.0,-1.0,1.0,2378.499191240003,0.0,1.0,0.75,1,0.0,0.0,1,0.19077919762457896,0,ZFM-02600,0.191,0.837,0.792,0.868,0.891,0.492,93.0
478,2385.2281533323853,2385.6410787023856,2385.222720542385,0.2,0.25,,1.0,1.0,2385.3951912400025,-0.25,1.0,1.0,0,1.0,0.0,-1,0.1724706976174275,0,ZFM-02600,0.17200000000000001,0.853,0.792,0.882,0.891,0.443,94.0
479,2390.777664992391,2391.4885272323913,2390.7619998923906,0.2,,0.125,1.0,-1.0,2390.928191240003,0.125,1.0,1.0,0,1.0,1.0,1,0.1661913476123118,0,ZFM-02600,0.155,0.768,0.8130000000000001,0.882,0.802,0.443,95.0
480,2398.010674952398,2398.9296163823988,2398.009941692398,0.2,,0.0625,1.0,-1.0,2398.526191240003,0.0625,0.0,0.0,0,1.0,1.0,1,0.5162495476047297,0,ZFM-02600,0.139,0.791,0.8320000000000001,0.882,0.8220000000000001,0.443,0.0
481,2407.760066582408,2408.1112981224082,2407.7435349024076,0.2,,1.0,1.0,-1.0,2407.928191240003,1.0,0.0,0.0,0,1.0,1.0,1,0.1846563375952428,0,ZFM-02600,0.125,0.812,0.849,0.882,0.839,0.443,1.0
482,2411.5265565624118,2412.973345202413,2411.5045254324114,0.2,,0.0,1.0,-1.0,2411.531191240003,0.0,0.0,0.25,0,1.0,1.0,1,0.026665807591598423,0,ZFM-02600,0.113,0.8310000000000001,0.864,0.882,0.855,0.443,2.0
483,2416.3095782124165,2416.909784852417,2416.287813722416,0.2,0.25,,1.0,1.0,2416.6081912400027,-0.25,0.0,0.0,0,1.0,0.0,-1,0.32037751758662125,0,ZFM-02600,0.10200000000000001,0.748,0.877,0.882,0.77,0.443,3.0
